ts,Ax,Ay,Az,Gx,Gy,Gz,T,P,velocity,q0_estimated,q1_estimated,q2_estimated,q3_estimated,filtered_altitude_AGL,filtered_acceleration,latitude,longitude,satellites
-0.75,,,,,,,,,-0.015,-5.157,7.835,-3.413,-0.594,-0.59,0.048,,,
-0.745,0.0649,-0.5049,0.0132,-0.5602,0.6303,0.4202,39.2,100072.0,,,,,,,,,,
-0.74,,,,,,,,,-0.025,-5.156,7.835,-3.413,-0.594,-0.59,0.048,,,
-0.735,0.0664,-0.5044,0.0142,-0.6303,0.6303,0.4202,39.2,100101.0,,,,,,,,,,
-0.73,,,,,,,,,-0.033,-5.156,7.835,-3.413,-0.594,-0.5,0.048,,,
-0.725,0.063,-0.5059,0.0127,-0.5602,0.5602,0.4202,39.2,100085.0,,,,,,,,,,
-0.72,,,,,,,,,-0.04,-5.156,7.836,-3.413,-0.594,-0.5,0.048,,,
-0.715,0.063,-0.5034,0.0112,-0.6303,0.7003,0.4902,39.2,100114.0,,,,,,,,,,
-0.71,,,,,,,,,-0.046,-5.155,7.836,-3.413,-0.594,-0.42,0.048,,,
-0.705,0.0635,-0.5044,0.0122,-0.5602,0.5602,0.4902,39.2,100114.0,,,,,,,,,,
-0.7,,,,,,,,,-0.053,-5.155,7.836,-3.414,-0.594,-0.5,0.048,,,
-0.695,0.0649,-0.5054,0.0107,-0.5602,0.6303,0.4202,39.2,100106.0,,,,,,,,,,
-0.69,,,,,,,,,-0.071,-5.155,7.836,-3.414,-0.594,-1.0,0.048,,,
-0.685,0.062,-0.5059,0.0103,-0.6303,0.7003,0.4202,39.2,100098.0,,,,,,,,,,
-0.68,,,,,,,,,-0.097,-5.154,7.836,-3.414,-0.594,-1.41,0.048,,,
-0.675,0.064,-0.5059,0.0078,-0.4202,0.4902,0.4202,39.2,100075.0,,,,,,,,,,
-0.67,,,,,,,,,-0.114,-5.154,7.836,-3.414,-0.594,-1.0,0.057,,,
-0.665,0.0649,-0.5039,0.0112,-0.5602,0.5602,0.4902,39.2,100116.0,,,,,,,,,,
-0.66,,,,,,,,,-0.125,-5.154,7.837,-3.414,-0.594,-0.74,0.057,,,
-0.655,0.0635,-0.5039,0.0127,-0.5602,0.4902,0.4202,39.2,100074.0,,,,,,,,,,
-0.65,,,,,,,,,-0.141,-5.154,7.837,-3.414,-0.594,-1.0,0.057,,,
-0.645,0.0645,-0.5044,0.0112,-0.5602,0.4202,0.4902,39.2,100094.0,,,,,,,,,,
-0.64,,,,,,,,,-0.157,-5.153,7.837,-3.414,-0.594,-1.0,0.048,,,
-0.635,0.0649,-0.5044,0.0137,-0.5602,0.5602,0.4902,39.2,100071.0,,,,,,,,,,
-0.63,,,,,,,,,-0.167,-5.153,7.837,-3.414,-0.594,-0.74,0.048,39.3900032043457,-8.289538383483887,12.0
-0.625,0.0659,-0.5039,0.0142,-0.5602,0.6303,0.4202,39.2,100073.0,,,,,,,,,,
-0.62,,,,,,,,,-0.176,-5.153,7.837,-3.414,-0.594,-0.74,0.048,,,
-0.615,0.064,-0.5034,0.0137,-0.5602,0.6303,0.4902,39.2,100125.0,,,,,,,,,,
-0.61,,,,,,,,,-0.179,-5.152,7.837,-3.414,-0.594,-0.4,0.048,,,
-0.605,0.063,-0.5024,0.0127,-0.5602,0.7003,0.4902,39.2,100091.0,,,,,,,,,,
-0.6,,,,,,,,,-0.181,-5.152,7.837,-3.415,-0.594,-0.4,0.048,,,
-0.595,0.063,-0.5034,0.0127,-0.4902,0.6303,0.4902,39.2,100099.0,,,,,,,,,,
-0.59,,,,,,,,,-0.178,-5.152,7.838,-3.415,-0.594,-0.15,0.038,,,
-0.585,0.0625,-0.5054,0.0117,-0.4902,0.9804,0.4902,39.2,100085.0,,,,,,,,,,
-0.58,,,,,,,,,-0.175,-5.152,7.838,-3.415,-0.594,-0.15,0.038,,,
-0.575,0.063,-0.5029,0.0103,-0.4202,0.7703,0.4902,39.2,100095.0,,,,,,,,,,
-0.57,,,,,,,,,-0.172,-5.151,7.838,-3.415,-0.594,-0.15,0.038,,,
-0.565,0.062,-0.5049,0.0117,-0.6303,0.7003,0.4202,39.2,100071.0,,,,,,,,,,
-0.56,,,,,,,,,-0.168,-5.151,7.838,-3.415,-0.594,-0.15,0.038,,,
-0.555,0.0659,-0.5044,0.0117,-0.5602,0.4902,0.4202,39.2,100109.0,,,,,,,,,,
-0.55,,,,,,,,,-0.165,-5.151,7.838,-3.416,-0.594,-0.15,0.038,,,
-0.545,0.0649,-0.5059,0.0098,-0.6303,0.4202,0.4202,39.2,100083.0,,,,,,,,,,
-0.54,,,,,,,,,-0.162,-5.15,7.838,-3.416,-0.594,-0.15,0.038,,,
-0.535,0.0645,-0.5029,0.0127,-0.6303,0.4202,0.4202,39.2,100072.0,,,,,,,,,,
-0.53,,,,,,,,,-0.16,-5.15,7.838,-3.416,-0.594,-0.15,0.038,,,
-0.525,0.064,-0.5059,0.0137,-0.6303,0.4202,0.4202,39.2,100099.0,,,,,,,,,,
-0.52,,,,,,,,,-0.157,-5.15,7.839,-3.416,-0.594,-0.15,0.029,,,
-0.515,0.0645,-0.5044,0.0127,-0.6303,0.5602,0.4202,39.2,100079.0,,,,,,,,,,
-0.51,,,,,,,,,-0.154,-5.149,7.839,-3.416,-0.594,-0.15,0.048,,,
-0.505,0.064,-0.5034,0.0132,-0.5602,0.5602,0.4202,39.2,100080.0,,,,,,,,,,
-0.5,,,,,,,,,-0.14,-5.149,7.839,-3.416,-0.594,0.36,0.048,,,
-0.495,0.0635,-0.5049,0.0142,-0.5602,0.5602,0.4902,39.2,100109.0,,,,,,,,,,
-0.49,,,,,,,,,-0.123,-5.149,7.839,-3.416,-0.594,0.53,0.048,,,
-0.485,0.0625,-0.502,0.0137,-0.6303,0.5602,0.4902,39.2,100070.0,,,,,,,,,,
-0.48,,,,,,,,,-0.106,-5.148,7.839,-3.416,-0.594,0.53,0.048,,,
-0.475,0.0625,-0.5044,0.0117,-0.6303,0.8403,0.4902,39.2,100101.0,,,,,,,,,,
-0.47,,,,,,,,,-0.085,-5.148,7.84,-3.416,-0.594,0.77,0.048,,,
-0.465,0.0615,-0.5044,0.0137,-0.6303,0.7703,0.4202,39.2,100069.0,,,,,,,,,,
-0.46,,,,,,,,,-0.069,-5.148,7.84,-3.416,-0.594,0.53,0.048,,,
-0.455,0.064,-0.5044,0.0122,-0.6303,0.7703,0.4902,39.2,100089.0,,,,,,,,,,
-0.45,,,,,,,,,-0.048,-5.147,7.84,-3.416,-0.594,0.77,0.048,,,
-0.445,0.0645,-0.5049,0.0112,-0.5602,0.7003,0.4202,39.2,100104.0,,,,,,,,,,
-0.44,,,,,,,,,-0.027,-5.147,7.84,-3.416,-0.594,0.77,0.048,,,
-0.435,0.0615,-0.5039,0.0117,-0.6303,0.5602,0.4202,39.2,100109.0,,,,,,,,,,
-0.43,,,,,,,,,-0.023,-5.147,7.84,-3.417,-0.594,0.02,0.048,39.3900032043457,-8.289538383483887,12.0
-0.425,0.0645,-0.5059,0.0127,-0.7003,0.5602,0.4202,39.2,100110.0,,,,,,,,,,
-0.42,,,,,,,,,-0.02,-5.146,7.84,-3.417,-0.594,0.02,0.048,,,
-0.415,0.0645,-0.5029,0.0117,-0.5602,0.4902,0.4202,39.2,100091.0,,,,,,,,,,
-0.41,,,,,,,,,-0.037,-5.146,7.841,-3.417,-0.594,-0.99,0.048,,,
-0.405,0.064,-0.5044,0.0122,-0.6303,0.5602,0.4202,39.2,100081.0,,,,,,,,,,
-0.4,,,,,,,,,-0.054,-5.146,7.841,-3.417,-0.594,-0.99,0.048,,,
-0.395,0.064,-0.5039,0.0127,-0.4902,0.4202,0.4202,39.2,100106.0,,,,,,,,,,
-0.39,,,,,,,,,-0.053,-5.145,7.841,-3.417,-0.594,-0.14,0.048,,,
-0.385,0.0625,-0.5049,0.0117,-0.5602,0.4202,0.4202,39.2,100097.0,,,,,,,,,,
-0.38,,,,,,,,,-0.07,-5.145,7.841,-3.417,-0.594,-0.99,0.048,,,
-0.375,0.0645,-0.5029,0.0142,-0.5602,0.4202,0.4202,39.2,100093.0,,,,,,,,,,
-0.37,,,,,,,,,-0.079,-5.145,7.841,-3.417,-0.594,-0.65,0.048,,,
-0.365,0.063,-0.5054,0.0117,-0.7003,0.6303,0.4902,39.2,100109.0,,,,,,,,,,
-0.36,,,,,,,,,-0.088,-5.145,7.841,-3.417,-0.595,-0.65,0.048,,,
-0.355,0.0649,-0.5044,0.0117,-0.6303,0.7703,0.4902,39.2,100096.0,,,,,,,,,,
-0.35,,,,,,,,,-0.109,-5.144,7.842,-3.417,-0.595,-1.24,0.048,,,
-0.345,0.063,-0.5039,0.0137,-0.6303,0.8403,0.4902,39.2,100077.0,,,,,,,,,,
-0.34,,,,,,,,,-0.117,-5.144,7.842,-3.417,-0.594,-0.65,0.048,,,
-0.335,0.0625,-0.5054,0.0132,-0.6303,0.9104,0.4202,39.2,100071.0,,,,,,,,,,
-0.33,,,,,,,,,-0.123,-5.143,7.842,-3.417,-0.594,-0.56,0.048,,,
-0.325,0.0625,-0.5029,0.0122,-0.5602,0.7703,0.4902,39.2,100084.0,,,,,,,,,,
-0.32,,,,,,,,,-0.124,-5.143,7.842,-3.418,-0.594,-0.31,0.048,,,
-0.315,0.0635,-0.5039,0.0137,-0.6303,0.8403,0.4202,39.2,100090.0,,,,,,,,,,
-0.31,,,,,,,,,-0.125,-5.143,7.842,-3.418,-0.594,-0.31,0.048,,,
-0.305,0.063,-0.5034,0.0112,-0.6303,0.7003,0.4202,39.2,100078.0,,,,,,,,,,
-0.3,,,,,,,,,-0.125,-5.142,7.843,-3.418,-0.594,-0.31,0.038,,,
-0.295,0.063,-0.5054,0.0088,-0.6303,0.7003,0.4902,39.2,100087.0,,,,,,,,,,
-0.29,,,,,,,,,-0.121,-5.142,7.843,-3.418,-0.594,-0.06,0.038,,,
-0.285,0.0645,-0.5054,0.0107,-0.5602,0.7703,0.4202,39.2,100089.0,,,,,,,,,,
-0.28,,,,,,,,,-0.111,-5.141,7.843,-3.418,-0.594,0.19,0.038,,,
-0.275,0.0674,-0.5034,0.0103,-0.6303,0.4202,0.4202,39.2,100127.0,,,,,,,,,,
-0.27,,,,,,,,,-0.101,-5.141,7.843,-3.418,-0.594,0.19,0.048,,,
-0.265,0.0625,-0.5093,0.0146,-0.7003,0.4902,0.4202,39.2,100100.0,,,,,,,,,,
-0.26,,,,,,,,,-0.092,-5.141,7.843,-3.418,-0.594,0.19,0.038,,,
-0.255,0.0664,-0.5044,0.0146,-0.7003,0.5602,0.4202,39.2,100087.0,,,,,,,,,,
-0.25,,,,,,,,,-0.083,-5.14,7.844,-3.418,-0.594,0.19,0.038,,,
-0.245,0.0635,-0.5068,0.0112,-0.7003,0.5602,0.4202,39.2,100099.0,,,,,,,,,,
-0.24,,,,,,,,,-0.073,-5.14,7.844,-3.418,-0.594,0.19,0.048,,,
-0.235,0.0654,-0.5024,0.0142,-0.7703,0.7703,0.3501,39.2,100090.0,,,,,,,,,,
-0.23,,,,,,,,,-0.068,-5.14,7.844,-3.418,-0.594,0.03,0.048,39.3900032043457,-8.289538383483887,12.0
-0.225,0.0591,-0.5073,0.021,-0.7703,1.0504,0.4202,39.2,100092.0,,,,,,,,,,
-0.22,,,,,,,,,-0.064,-5.139,7.844,-3.419,-0.594,-0.05,0.048,,,
-0.215,0.0659,-0.5024,0.0103,-0.7003,0.9804,0.3501,39.2,100086.0,,,,,,,,,,
-0.21,,,,,,,,,-0.06,-5.139,7.845,-3.419,-0.594,-0.05,0.067,,,
-0.205,0.0605,-0.5293,0.0142,-0.6303,1.4706,0.4902,39.2,100100.0,,,,,,,,,,
-0.2,,,,,,,,,-0.056,-5.138,7.845,-3.419,-0.593,-0.05,0.067,,,
-0.195,0.0869,-0.5303,0.0186,-0.5602,1.7507,0.2101,39.2,100092.0,,,,,,,,,,
-0.19,,,,,,,,,-0.056,-5.137,7.845,-3.42,-0.593,-0.22,0.067,,,
-0.185,0.0776,-0.5532,0.0054,-0.07,0.2801,0.2801,39.2,100093.0,,,,,,,,,,
-0.18,,,,,,,,,-0.055,-5.137,7.845,-3.42,-0.592,-0.22,0.095,,,
-0.175,0.084,-0.5557,0.0122,-0.2101,-0.4202,0.1401,39.2,100052.0,,,,,,,,,,
-0.17,,,,,,,,,-0.055,-5.137,7.845,-3.42,-0.592,-0.22,0.105,,,
-0.165,0.043,-0.6377,0.0312,-0.5602,-0.7703,0.6303,39.2,100118.0,,,,,,,,,,
-0.16,,,,,,,,,-0.054,-5.137,7.845,-3.419,-0.593,-0.22,0.105,,,
-0.155,0.0576,-0.772,0.0034,-0.6303,-2.451,0.0,39.2,100097.0,,,,,,,,,,
-0.15,,,,,,,,,-0.049,-5.137,7.845,-3.419,-0.594,-0.22,0.534,,,
-0.145,0.0693,-0.918,-0.0195,-1.1204,-3.5714,-0.1401,39.2,100161.0,,,,,,,,,,
-0.14,,,,,,,,,-0.044,-5.138,7.846,-3.417,-0.595,-0.22,0.553,,,
-0.135,0.0928,-1.1187,0.0708,2.2409,-1.1905,-0.9804,39.1,99993.0,,,,,,,,,,
-0.13,,,,,,,,,-0.036,-5.138,7.846,-3.415,-0.598,-0.3,1.002,,,
-0.125,0.0991,-1.3149,0.0552,0.2801,5.6022,0.3501,39.2,100083.0,,,,,,,,,,
-0.12,,,,,,,,,-0.028,-5.141,7.845,-3.414,-0.598,-0.3,1.05,,,
-0.115,0.0947,-1.4478,0.0269,1.9608,5.1821,0.4202,39.2,100123.0,,,,,,,,,,
-0.11,,,,,,,,,-0.003,-5.139,7.845,-3.416,-0.594,-0.3,2.653,,,
-0.105,0.0947,-1.584,0.022,-0.4202,3.3613,1.6807,39.2,100044.0,,,,,,,,,,
-0.1,,,,,,,,,0.048,-5.14,7.844,-3.418,-0.59,-0.3,5.277,,,
-0.095,-0.0664,-1.7129,-0.0054,-1.4706,3.4314,4.2017,39.2,100055.0,,,,,,,,,,
-0.09,,,,,,,,,0.127,-5.138,7.844,-3.42,-0.589,-0.3,8.13,,,
-0.085,0.0449,-1.8486,-0.0479,-1.6807,7.0028,0.2801,39.2,100112.0,,,,,,,,,,
-0.08,,,,,,,,,0.263,-5.136,7.844,-3.424,-0.589,0.54,12.053,,,
-0.075,0.0742,-1.9854,0.0264,-0.2801,7.6331,0.4202,39.2,99995.0,,,,,,,,,,
-0.07,,,,,,,,,0.413,-5.133,7.845,-3.427,-0.585,-0.64,15.889,,,
-0.065,0.0815,-2.4956,0.0078,-1.1204,12.7451,1.4006,39.2,100066.0,,,,,,,,,,
-0.06,,,,,,,,,0.613,-5.131,7.845,-3.43,-0.58,0.54,18.484,,,
-0.055,0.1152,-2.8076,0.0327,0.4902,15.8263,0.4902,39.2,100081.0,,,,,,,,,,
-0.05,,,,,,,,,0.869,-5.127,7.846,-3.436,-0.572,1.94,21.147,,,
-0.045,0.1392,-1.6348,0.2334,-0.4902,11.7647,-1.1905,39.2,100143.0,,,,,,,,,,
-0.04,,,,,,,,,1.15,-5.123,7.847,-3.443,-0.562,1.94,23.666,,,
-0.035,-0.0557,-2.4595,-0.1382,-2.521,13.7955,3.7115,39.2,100063.0,,,,,,,,,,
-0.03,,,,,,,,,1.402,-5.119,7.848,-3.447,-0.553,0.68,23.666,,,
-0.025,0.1035,-2.6138,-0.019,0.3501,17.0868,-0.2801,39.2,100078.0,,,,,,,,,,
-0.02,,,,,,,,,1.707,-5.113,7.848,-3.456,-0.546,1.94,26.319,,,
-0.015,0.0415,-2.73,0.0396,-0.6303,16.8067,1.4006,39.2,100066.0,,,,,,,,,,
-0.01,,,,,,,,,2.037,-5.109,7.849,-3.463,-0.534,1.94,28.991,,,
-0.005,0.0811,-2.8096,0.0337,-1.2605,20.7983,1.1204,39.2,100135.0,,,,,,,,,,
0.0,,,,,,,,,2.459,-5.104,7.85,-3.471,-0.524,1.94,38.257,,,
0.005,0.1328,-2.8745,0.0024,-1.5406,22.8291,0.5602,39.2,100071.0,,,,,,,,,,
0.01,,,,,,,,,2.848,9.999,0.0,0.017,0.0,0.93,38.963,,,
0.015,0.0356,-2.9419,0.0361,-0.7703,24.2297,1.9608,39.2,100062.0,,,,,,,,,,
0.02,,,,,,,,,3.261,9.999,-0.002,0.037,0.0,1.53,41.273,,,
0.025,0.0825,-2.9688,0.0205,-2.1008,27.591,0.6303,39.2,100016.0,,,,,,,,,,
0.03,,,,,,,,,3.696,9.999,-0.002,0.058,0.002,1.53,43.544,,,
0.035,0.0669,-3.0347,0.0195,-1.5406,28.2913,1.1905,39.2,100206.0,,,,,,,,,,
0.04,,,,,,,,,4.146,9.999,-0.004,0.081,0.002,1.53,45.061,,,
0.045,0.1006,-3.064,-0.0288,-2.2409,32.7031,1.1204,39.2,100206.0,,,,,,,,,,
0.05,,,,,,,,,4.596,9.999,-0.005,0.106,0.003,1.53,45.099,,,
0.055,0.0576,-3.1265,0.0815,-0.5602,33.1232,1.7507,39.2,100058.0,,,,,,,,,,
0.06,,,,,,,,,5.06,9.999,-0.007,0.134,0.003,1.53,46.368,,,
0.065,0.1201,-3.1396,0.0469,-0.4902,32.0728,0.7003,39.2,100338.0,,,,,,,,,,
0.07,,,,,,,,,5.536,9.998,-0.007,0.162,0.004,1.53,47.685,,,
0.075,0.0571,-3.1826,-0.002,-0.9804,30.4622,1.1204,39.2,100125.0,,,,,,,,,,
0.08,,,,,,,,,6.018,9.998,-0.007,0.19,0.005,1.53,48.21,,,
0.085,0.1206,-3.2085,0.0342,-1.6807,34.6639,1.1905,39.2,99964.0,,,,,,,,,,
0.09,,,,,,,,,6.512,9.997,-0.008,0.216,0.005,-3.01,49.499,,,
0.095,0.269,-3.2148,0.0903,-0.7703,31.0924,1.0504,39.2,100100.0,,,,,,,,,,
0.1,,,,,,,,,7.013,9.996,-0.009,0.246,0.006,1.53,50.071,,,
0.105,-0.0259,-3.3018,0.0479,-1.3305,25.9804,3.6415,39.2,100054.0,,,,,,,,,,
0.11,,,,,,,,,7.525,9.996,-0.01,0.273,0.006,-0.91,51.293,,,
0.115,0.1221,-3.292,-0.0479,-2.8711,29.6919,0.9104,39.2,100152.0,,,,,,,,,,
0.12,,,,,,,,,8.04,9.995,-0.011,0.295,0.009,-0.91,51.55,,,
0.125,0.1211,-3.3232,0.0225,-2.6611,32.8431,2.1709,39.2,100096.0,,,,,,,,,,
0.13,,,,,,,,,8.564,9.994,-0.013,0.321,0.01,-3.01,52.39,,,
0.135,0.0889,-3.3506,0.0459,-2.1008,33.0532,2.7311,39.2,100114.0,,,,,,,,,,
0.14,,,,,,,,,9.092,9.993,-0.015,0.349,0.011,-0.91,52.896,,,
0.145,0.0762,-3.394,0.0361,-2.521,34.8739,2.6611,39.2,100207.0,,,,,,,,,,
0.15,,,,,,,,,9.622,9.992,-0.017,0.377,0.013,-0.91,53.02,,,
0.155,0.1362,-3.3809,-0.0063,-3.6415,38.3754,2.9412,39.2,100057.0,,,,,,,,,,
0.16,,,,,,,,,10.167,9.991,-0.019,0.407,0.015,-2.09,54.528,,,
0.165,0.1123,-3.4346,0.04,-2.451,33.7535,3.2913,39.2,100140.0,,,,,,,,,,
0.17,,,,,,,,,10.713,9.99,-0.022,0.44,0.018,-0.91,54.718,39.3900032043457,-8.289538383483887,12.0
0.175,0.0801,-3.4341,0.0444,-2.9412,36.4146,3.2213,39.2,99963.0,,,,,,,,,,
0.18,,,,,,,,,11.264,9.988,-0.024,0.469,0.02,-0.91,55.138,,,
0.185,0.1602,-3.4473,0.0127,-3.0812,39.4958,2.381,39.2,100028.0,,,,,,,,,,
0.19,,,,,,,,,11.821,9.987,-0.026,0.501,0.023,-0.91,55.673,,,
0.195,0.0244,-3.4697,0.0205,-2.381,36.6947,3.5714,39.2,100084.0,,,,,,,,,,
0.2,,,,,,,,,12.383,9.985,-0.028,0.535,0.024,-0.58,56.264,,,
0.205,0.0723,-3.4771,0.043,-3.1513,35.9944,2.381,39.2,100032.0,,,,,,,,,,
0.21,,,,,,,,,12.948,9.983,-0.03,0.566,0.027,-0.58,56.522,,,
0.215,0.1177,-3.4902,0.0474,-2.8011,33.1232,2.0308,39.2,100175.0,,,,,,,,,,
0.22,,,,,,,,,13.52,9.982,-0.033,0.597,0.029,0.43,57.305,,,
0.225,0.1445,-3.5117,-0.019,-3.8515,34.8039,2.591,39.2,100052.0,,,,,,,,,,
0.23,,,,,,,,,14.093,9.98,-0.035,0.626,0.031,0.43,57.314,,,
0.235,0.0752,-3.5342,-0.063,-4.902,36.9048,3.7815,39.2,99987.0,,,,,,,,,,
0.24,,,,,,,,,14.668,9.978,-0.038,0.656,0.033,2.7,57.562,,,
0.245,0.1401,-3.5171,0.0825,-3.3613,27.6611,2.9412,39.2,100113.0,,,,,,,,,,
0.25,,,,,,,,,15.248,9.976,-0.042,0.688,0.036,3.12,58.001,,,
0.255,0.2061,-3.5332,0.0938,-3.0112,10.4342,0.1401,39.2,100047.0,,,,,,,,,,
0.26,,,,,,,,,15.829,9.974,-0.045,0.711,0.038,3.12,58.144,,,
0.265,0.1929,-3.5801,0.0029,-2.521,9.7339,1.4706,39.2,100069.0,,,,,,,,,,
0.27,,,,,,,,,16.412,9.973,-0.047,0.72,0.038,3.54,58.402,,,
0.275,0.0908,-3.606,0.0063,-1.4006,3.5014,0.9104,39.2,100013.0,,,,,,,,,,
0.28,,,,,,,,,17.0,9.973,-0.049,0.728,0.039,3.12,58.822,,,
0.285,0.25,-3.6035,0.0278,-1.7507,4.902,1.4706,39.2,100033.0,,,,,,,,,,
0.29,,,,,,,,,17.589,9.973,-0.05,0.731,0.039,3.12,58.927,,,
0.295,0.4536,-3.6162,0.105,-2.591,-7.6331,3.6415,39.2,100024.0,,,,,,,,,,
0.3,,,,,,,,,18.181,9.972,-0.052,0.735,0.04,3.54,59.242,,,
0.305,0.0186,-3.6958,-0.1104,-3.1513,-13.7955,6.1625,39.2,100061.0,,,,,,,,,,
0.31,,,,,,,,,18.773,9.973,-0.054,0.728,0.043,3.54,59.261,,,
0.315,0.0288,-3.6768,-0.0669,-4.0616,-7.0028,5.5322,39.2,100120.0,,,,,,,,,,
0.32,,,,,,,,,19.375,9.974,-0.056,0.715,0.049,3.54,60.158,,,
0.325,0.2563,-3.6851,0.0586,-2.7311,-3.9216,5.2521,39.2,100058.0,,,,,,,,,,
0.33,,,,,,,,,19.98,9.974,-0.059,0.709,0.053,3.54,60.616,,,
0.335,0.0786,-3.7231,0.1587,-2.3109,-4.6218,7.9132,39.2,100097.0,,,,,,,,,,
0.34,,,,,,,,,20.587,9.974,-0.061,0.705,0.058,2.62,60.664,,,
0.345,0.1465,-3.7173,-0.0664,-5.112,-8.4034,6.1625,39.2,100025.0,,,,,,,,,,
0.35,,,,,,,,,21.195,9.974,-0.062,0.701,0.065,2.62,60.864,,,
0.355,0.2534,-3.7388,0.0088,-2.381,-21.2885,4.4818,39.2,100000.0,,,,,,,,,,
0.36,,,,,,,,,21.815,9.975,-0.066,0.693,0.07,2.62,62.047,,,
0.365,0.1572,-3.7827,0.1724,-0.9804,-27.521,6.3725,39.2,100038.0,,,,,,,,,,
0.37,,,,,,,,,22.436,9.976,-0.067,0.674,0.074,4.72,62.21,39.38999938964844,-8.289535522460938,12.0
0.375,0.0483,-3.7686,-0.0361,-4.6218,-26.3305,6.5126,39.2,100056.0,,,,,,,,,,
0.38,,,,,,,,,23.06,9.978,-0.067,0.65,0.079,4.3,62.419,,,
0.385,0.2295,-3.7715,-0.0181,-3.2913,-36.7647,-0.07,39.2,100034.0,,,,,,,,,,
0.39,,,,,,,,,23.688,9.979,-0.071,0.627,0.085,2.79,62.839,,,
0.395,0.3672,-3.7866,0.0488,-2.2409,-31.8627,-0.7003,39.2,100030.0,,,,,,,,,,
0.4,,,,,,,,,24.317,9.981,-0.073,0.594,0.085,2.79,62.954,,,
0.405,0.2983,-3.8145,0.1865,-2.3109,-35.9944,2.7311,39.2,100022.0,,,,,,,,,,
0.41,,,,,,,,,24.949,9.983,-0.075,0.566,0.084,4.3,63.259,,,
0.415,-0.0215,-3.832,0.103,-4.7619,-45.028,3.1513,39.2,100017.0,,,,,,,,,,
0.42,,,,,,,,,25.587,9.985,-0.076,0.534,0.087,4.64,63.841,,,
0.425,0.1548,-3.8291,-0.1104,-6.5126,-62.605,-2.591,39.2,100019.0,,,,,,,,,,
0.43,,,,,,,,,26.225,9.987,-0.08,0.495,0.089,4.97,63.899,,,
0.435,0.0713,-3.8594,0.0381,-2.6611,-72.619,-2.2409,39.2,99990.0,,,,,,,,,,
0.44,,,,,,,,,26.866,9.989,-0.085,0.44,0.088,5.4,64.118,,,
0.445,0.1196,-3.8438,0.0879,-3.3613,-75.2801,-3.9216,39.2,99990.0,,,,,,,,,,
0.45,,,,,,,,,27.508,9.992,-0.087,0.376,0.086,5.65,64.194,,,
0.455,0.1499,-3.8428,0.0967,-3.0112,-75.2101,-5.5322,39.2,99981.0,,,,,,,,,,
0.46,,,,,,,,,28.154,9.994,-0.089,0.31,0.083,5.65,64.738,,,
0.465,0.4321,-3.8213,-0.1533,-4.3417,-67.2969,-5.8123,39.2,99992.0,,,,,,,,,,
0.47,,,,,,,,,28.804,9.996,-0.091,0.244,0.078,5.9,65.025,,,
0.475,0.1953,-3.8706,0.1768,-0.3501,-71.0084,2.2409,39.2,99968.0,,,,,,,,,,
0.48,,,,,,,,,29.454,9.997,-0.094,0.185,0.074,6.07,65.025,,,
0.485,0.145,-3.8555,0.0386,-1.6106,-91.5966,-2.451,39.2,99986.0,,,,,,,,,,
0.49,,,,,,,,,30.104,9.998,-0.094,0.123,0.076,8.17,65.082,,,
0.495,0.2554,-3.8638,0.0806,-2.0308,-112.8151,-2.381,39.2,99997.0,,,,,,,,,,
0.5,,,,,,,,,30.757,9.999,-0.094,0.042,0.074,8.34,65.292,,,
0.505,0.2769,-3.8896,0.1094,0.5602,-121.3585,0.7703,39.2,99984.0,,,,,,,,,,
0.51,,,,,,,,,31.41,9.999,-0.095,-0.055,0.073,8.34,65.311,,,
0.515,-0.0913,-3.9219,0.0024,-1.7507,-115.2661,3.7115,39.2,99983.0,,,,,,,,,,
0.52,,,,,,,,,32.065,9.997,-0.094,-0.162,0.074,8.34,65.54,,,
0.525,-0.2935,-3.9258,-0.2617,-4.1317,-103.5714,1.7507,39.2,99946.0,,,,,,,,,,
0.53,,,,,,,,,32.72,9.995,-0.095,-0.263,0.078,8.67,65.616,,,
0.535,0.5591,-3.9243,0.0234,1.5406,-88.9356,-13.8655,39.2,99976.0,,,,,,,,,,
0.54,,,,,,,,,33.377,9.992,-0.097,-0.353,0.08,8.84,65.702,,,
0.545,0.2329,-3.9497,0.1636,1.9608,-87.6751,-3.5014,39.2,99963.0,,,,,,,,,,
0.55,,,,,,,,,34.035,9.989,-0.095,-0.431,0.068,8.93,65.836,,,
0.555,0.104,-3.9287,0.2886,0.2101,-93.4174,-3.8515,39.2,99936.0,,,,,,,,,,
0.56,,,,,,,,,34.696,9.986,-0.092,-0.508,0.065,8.93,66.208,,,
0.565,0.1982,-3.9595,0.1665,-1.6807,-98.3193,-7.9832,39.2,99984.0,,,,,,,,,,
0.57,,,,,,,,,35.364,9.981,-0.091,-0.59,0.063,9.52,66.838,39.38999557495117,-8.289525985717773,12.0
0.575,-0.0723,-3.9644,-0.2046,-3.3613,-97.0588,-5.042,39.2,99926.0,,,,,,,,,,
0.58,,,,,,,,,36.032,9.976,-0.091,-0.676,0.056,8.93,66.886,,,
0.585,-0.3057,-4.021,-0.1768,-0.2801,-97.9692,-6.0224,39.2,99923.0,,,,,,,,,,
0.59,,,,,,,,,36.701,9.97,-0.093,-0.761,0.052,9.52,66.914,,,
0.595,0.2476,-4.0273,0.1914,-0.4902,-98.0392,-11.2045,39.2,99941.0,,,,,,,,,,
0.6,,,,,,,,,37.37,9.963,-0.092,-0.846,0.047,10.61,66.971,,,
0.605,0.0146,-4.0464,0.1553,-0.9104,-96.7087,-7.9832,39.2,99985.0,,,,,,,,,,
0.61,,,,,,,,,38.043,9.955,-0.091,-0.932,0.038,12.04,67.382,,,
0.615,-0.1021,-4.0425,-0.1646,-3.5014,-96.2885,-8.7535,39.2,99938.0,,,,,,,,,,
0.62,,,,,,,,,38.719,9.947,-0.091,-1.016,0.031,12.04,67.573,,,
0.625,0.0649,-4.042,-0.1504,-2.451,-95.098,-10.4342,39.2,99946.0,,,,,,,,,,
0.63,,,,,,,,,39.395,9.938,-0.093,-1.1,0.024,12.46,67.668,,,
0.635,0.0693,-4.0747,0.1606,-0.1401,-96.2185,-9.4538,39.2,99901.0,,,,,,,,,,
0.64,,,,,,,,,40.082,9.929,-0.094,-1.183,0.015,12.46,68.775,,,
0.645,0.0391,-4.0669,0.1016,-3.0112,-95.098,-9.8039,39.2,99918.0,,,,,,,,,,
0.65,,,,,,,,,40.771,9.918,-0.092,-1.267,0.007,12.71,68.899,,,
0.655,0.0693,-4.064,-0.0928,-4.4818,-93.7675,-10.7143,39.2,99913.0,,,,,,,,,,
0.66,,,,,,,,,41.462,9.908,-0.094,-1.349,0.0,12.71,69.185,,,
0.665,-0.0186,-4.0811,-0.0132,-2.8711,-93.6975,-9.7339,39.2,99913.0,,,,,,,,,,
0.67,,,,,,,,,42.154,9.896,-0.096,-1.431,-0.01,13.72,69.195,,,
0.675,0.085,-4.103,0.0674,-3.5014,-94.4678,-11.2045,39.2,99898.0,,,,,,,,,,
0.68,,,,,,,,,42.846,9.884,-0.097,-1.512,-0.018,13.98,69.271,,,
0.685,0.0703,-4.1138,-0.0112,-4.6919,-92.6471,-10.9944,39.2,99891.0,,,,,,,,,,
0.69,,,,,,,,,43.541,9.871,-0.099,-1.594,-0.027,14.4,69.615,,,
0.695,-0.0352,-4.1104,0.0303,-4.4118,-92.577,-10.3641,39.1,99873.0,,,,,,,,,,
0.7,,,,,,,,,44.238,9.858,-0.101,-1.674,-0.037,14.82,69.672,,,
0.705,0.0513,-4.1318,-0.0088,-5.3922,-92.9972,-11.6947,39.1,99882.0,,,,,,,,,,
0.71,,,,,,,,,44.935,9.844,-0.103,-1.754,-0.046,14.82,69.825,,,
0.715,0.0728,-4.145,-0.002,-5.1821,-91.7367,-11.4846,39.2,99887.0,,,,,,,,,,
0.72,,,,,,,,,45.634,9.829,-0.106,-1.834,-0.056,15.83,69.949,,,
0.725,0.0068,-4.1382,0.0557,-5.2521,-91.4566,-11.3445,39.2,99882.0,,,,,,,,,,
0.73,,,,,,,,,46.337,9.814,-0.109,-1.913,-0.067,16.08,70.378,,,
0.735,0.0601,-4.1313,-0.0117,-6.5826,-91.8768,-12.1849,39.2,99866.0,,,,,,,,,,
0.74,,,,,,,,,47.042,9.798,-0.112,-1.992,-0.077,16.67,70.521,,,
0.745,0.0181,-4.1489,-0.002,-6.3025,-90.5462,-11.4846,39.2,99846.0,,,,,,,,,,
0.75,,,,,,,,,47.747,9.781,-0.116,-2.071,-0.088,17.01,70.588,,,
0.755,0.0039,-4.1655,0.0566,-6.4426,-91.3866,-11.7647,39.1,99847.0,,,,,,,,,,
0.76,,,,,,,,,48.456,9.765,-0.12,-2.149,-0.098,17.43,70.932,,,
0.765,0.0718,-4.1714,-0.0015,-7.423,-90.7563,-12.395,39.2,99889.0,,,,,,,,,,
0.77,,,,,,,,,49.165,9.747,-0.124,-2.227,-0.108,17.43,70.941,39.389984130859375,-8.289506912231445,12.0
0.775,0.0161,-4.1826,0.0205,-7.2129,-90.1261,-11.6246,39.1,99808.0,,,,,,,,,,
0.78,,,,,,,,,49.875,9.729,-0.128,-2.304,-0.12,17.43,71.065,,,
0.785,0.0078,-4.1885,0.0083,-7.7731,-91.1765,-11.9048,39.1,99823.0,,,,,,,,,,
0.79,,,,,,,,,50.586,9.71,-0.133,-2.381,-0.13,18.19,71.199,,,
0.795,0.0439,-4.1963,0.0254,-7.7031,-90.5462,-11.9048,39.2,99819.0,,,,,,,,,,
0.8,,,,,,,,,51.298,9.69,-0.137,-2.459,-0.141,18.78,71.275,,,
0.805,0.0098,-4.2075,0.0596,-7.423,-90.7563,-11.6947,39.2,99842.0,,,,,,,,,,
0.81,,,,,,,,,52.013,9.67,-0.142,-2.536,-0.152,20.38,71.6,,,
0.815,0.0488,-4.2217,-0.002,-8.2633,-90.8964,-11.9748,39.1,99825.0,,,,,,,,,,
0.82,,,,,,,,,52.73,9.65,-0.147,-2.613,-0.163,20.46,71.714,,,
0.825,0.0088,-4.2031,0.0234,-7.9832,-90.4762,-11.4146,39.1,99827.0,,,,,,,,,,
0.83,,,,,,,,,53.448,9.628,-0.152,-2.689,-0.174,20.8,71.934,,,
0.835,0.0186,-4.2261,0.0391,-8.1933,-91.3165,-11.6947,39.2,99790.0,,,,,,,,,,
0.84,,,,,,,,,54.169,9.606,-0.157,-2.766,-0.184,22.06,72.048,,,
0.845,0.043,-4.2485,-0.0103,-8.8235,-91.0364,-11.8347,39.2,99832.0,,,,,,,,,,
0.85,,,,,,,,,54.89,9.583,-0.163,-2.842,-0.195,22.23,72.201,,,
0.855,0.0044,-4.2529,0.0171,-8.6134,-91.1765,-11.1345,39.1,99780.0,,,,,,,,,,
0.86,,,,,,,,,55.613,9.56,-0.168,-2.919,-0.206,22.23,72.334,,,
0.865,0.0146,-4.2563,0.0415,-8.8936,-91.5266,-11.2745,39.2,99793.0,,,,,,,,,,
0.87,,,,,,,,,56.336,9.536,-0.174,-2.995,-0.217,22.4,72.42,,,
0.875,0.0405,-4.2559,-0.021,-9.944,-91.0364,-11.4146,39.1,99747.0,,,,,,,,,,
0.88,,,,,,,,,57.062,9.511,-0.18,-3.072,-0.227,22.4,72.697,,,
0.885,0.0176,-4.2969,0.0591,-9.1737,-91.3165,-10.7843,39.2,99772.0,,,,,,,,,,
0.89,,,,,,,,,57.788,9.486,-0.187,-3.147,-0.238,22.74,72.783,,,
0.895,0.0171,-4.2886,0.0425,-9.944,-91.5966,-11.0644,39.2,99756.0,,,,,,,,,,
0.9,,,,,,,,,58.52,9.46,-0.193,-3.223,-0.248,24.93,73.222,,,
0.905,0.0605,-4.3003,0.0303,-10.2241,-91.0364,-11.1345,39.1,99746.0,,,,,,,,,,
0.91,,,,,,,,,59.252,9.434,-0.2,-3.299,-0.259,25.18,73.308,,,
0.915,-0.0234,-4.2944,0.0195,-10.1541,-90.9664,-10.2241,39.1,99779.0,,,,,,,,,,
0.92,,,,,,,,,59.985,9.407,-0.207,-3.374,-0.27,26.02,73.365,,,
0.925,0.0396,-4.3076,0.0483,-9.8739,-92.437,-10.8543,39.1,99755.0,,,,,,,,,,
0.93,,,,,,,,,60.718,9.379,-0.214,-3.449,-0.28,26.11,73.375,,,
0.935,-0.0098,-4.3359,0.0469,-10.084,-92.7871,-10.084,39.1,99716.0,,,,,,,,,,
0.94,,,,,,,,,61.457,9.35,-0.221,-3.525,-0.29,26.7,74.004,,,
0.945,0.0356,-4.3384,0.0225,-10.4342,-92.9272,-10.4342,39.2,99753.0,,,,,,,,,,
0.95,,,,,,,,,62.198,9.321,-0.228,-3.601,-0.3,28.05,74.119,,,
0.955,-0.0244,-4.3521,0.0415,-10.084,-92.9972,-9.3838,39.2,99724.0,,,,,,,,,,
0.96,,,,,,,,,62.939,9.291,-0.235,-3.676,-0.31,28.13,74.167,,,
0.965,-0.0005,-4.3726,0.0542,-10.3641,-93.7675,-9.5938,39.1,99697.0,,,,,,,,,,
0.97,,,,,,,,,63.68,9.26,-0.243,-3.752,-0.319,28.3,74.233,,,
0.975,0.0386,-4.3872,0.0728,-10.014,-94.0476,-9.4538,39.1,99692.0,,,,,,,,,,
0.98,,,,,,,,,64.423,9.228,-0.25,-3.828,-0.329,28.3,74.377,,,
0.985,-0.0273,-4.3882,0.083,-9.8739,-94.1176,-8.6835,39.1,99719.0,,,,,,,,,,
0.99,,,,,,,,,65.171,9.196,-0.257,-3.904,-0.338,28.89,74.93,,,
0.995,-0.0073,-4.3984,0.0391,-9.8739,-94.0476,-8.6835,39.1,99701.0,,,,,,,,,,
1.0,,,,,,,,,65.92,9.163,-0.265,-3.979,-0.346,30.74,74.978,,,
1.005,0.0049,-4.4272,0.0649,-9.2437,-94.1877,-8.2633,39.1,99688.0,,,,,,,,,,
1.01,,,,,,,,,66.671,9.129,-0.272,-4.054,-0.355,31.16,75.245,,,
1.015,-0.0005,-4.4268,0.0552,-9.1737,-94.7479,-7.7031,39.1,99662.0,,,,,,,,,,
1.02,,,,,,,,,67.426,9.095,-0.279,-4.13,-0.362,31.42,75.646,,,
1.025,-0.0117,-4.4307,0.0811,-8.8235,-95.2381,-7.3529,39.1,99655.0,,,,,,,,,,
1.03,,,,,,,,,68.185,9.06,-0.287,-4.205,-0.37,32.68,75.932,,,
1.035,-0.0117,-4.4521,0.0728,-8.5434,-95.2381,-7.0028,39.1,99652.0,,,,,,,,,,
1.04,,,,,,,,,68.943,9.024,-0.294,-4.28,-0.377,33.02,75.951,,,
1.045,0.0049,-4.4624,0.0562,-8.4734,-95.9384,-6.5826,39.1,99661.0,,,,,,,,,,
1.05,,,,,,,,,69.704,8.988,-0.301,-4.355,-0.383,33.44,76.152,,,
1.055,-0.0386,-4.438,-0.0039,-9.1737,-96.0084,-5.5322,39.1,99645.0,,,,,,,,,,
1.06,,,,,,,,,70.469,8.95,-0.308,-4.431,-0.389,33.78,76.705,,,
1.065,0.0327,-4.4883,0.0654,-8.2633,-97.619,-5.8824,39.1,99666.0,,,,,,,,,,
1.07,,,,,,,,,71.236,8.912,-0.316,-4.506,-0.395,35.97,76.715,,,
1.075,0.0513,-4.4541,0.1206,-8.0532,-97.7591,-5.8123,39.1,99625.0,,,,,,,,,,
1.08,,,,,,,,,72.002,8.873,-0.323,-4.582,-0.4,35.97,76.781,,,
1.085,-0.0703,-4.4917,0.2183,-6.0224,-98.9496,-4.2017,39.2,99627.0,,,,,,,,,,
1.09,,,,,,,,,72.77,8.833,-0.33,-4.657,-0.405,36.06,76.925,,,
1.095,0.1982,-4.4712,0.1348,-7.9832,-98.7395,-8.7535,39.1,99590.0,,,,,,,,,,
1.1,,,,,,,,,73.541,8.792,-0.336,-4.734,-0.408,36.56,77.201,,,
1.105,-0.1108,-4.5093,0.0391,-6.5126,-98.1092,-2.6611,39.1,99619.0,,,,,,,,,,
1.11,,,,,,,,,74.312,8.75,-0.342,-4.809,-0.416,36.82,77.239,,,
1.115,-0.2119,-4.5015,-0.0112,-5.3922,-101.1204,-3.3613,39.1,99605.0,,,,,,,,,,
1.12,,,,,,,,,75.084,8.708,-0.349,-4.884,-0.418,37.41,77.402,,,
1.125,0.0977,-4.522,0.1235,-3.7115,-102.2409,-5.5322,39.1,99569.0,,,,,,,,,,
1.13,,,,,,,,,75.858,8.664,-0.355,-4.961,-0.42,38.92,77.573,,,
1.135,0.0791,-4.5244,0.1533,-3.2213,-100.4202,-3.0812,39.1,99566.0,,,,,,,,,,
1.14,,,,,,,,,76.635,8.619,-0.359,-5.039,-0.422,39.09,77.907,,,
1.145,-0.1084,-4.542,0.1172,-3.5714,-101.3305,-2.1008,39.1,99570.0,,,,,,,,,,
1.15,,,,,,,,,77.413,8.574,-0.363,-5.114,-0.423,39.6,77.974,,,
1.155,0.019,-4.5186,-0.002,-3.7115,-101.9608,-3.2913,39.1,99553.0,,,,,,,,,,
1.16,,,,,,,,,78.193,8.528,-0.368,-5.19,-0.423,40.78,78.165,,,
1.165,0.04,-4.5513,0.1152,-1.3305,-103.1513,-2.0308,39.1,99568.0,,,,,,,,,,
1.17,,,,,,,,,78.975,8.481,-0.373,-5.266,-0.424,42.05,78.318,39.38994216918945,-8.289453506469727,12.0
1.175,-0.0356,-4.5801,0.1548,-1.1204,-104.0616,-1.3305,39.1,99530.0,,,,,,,,,,
1.18,,,,,,,,,79.759,8.433,-0.376,-5.343,-0.423,43.74,78.499,,,
1.185,-0.0278,-4.583,0.0107,-1.8207,-104.7619,-1.5406,39.1,99529.0,,,,,,,,,,
1.19,,,,,,,,,80.543,8.384,-0.38,-5.419,-0.421,43.82,78.566,,,
1.195,0.0566,-4.5781,0.1235,0.07,-106.2325,-1.7507,39.1,99519.0,,,,,,,,,,
1.2,,,,,,,,,81.327,8.334,-0.384,-5.496,-0.42,43.9,78.614,,,
1.205,0.0386,-4.5967,0.1436,0.8403,-107.493,-1.1204,39.1,99529.0,,,,,,,,,,
1.21,,,,,,,,,82.115,8.282,-0.387,-5.573,-0.418,44.07,78.957,,,
1.215,0.0063,-4.6055,0.0864,0.9804,-108.0532,-1.1204,39.1,99486.0,,,,,,,,,,
1.22,,,,,,,,,82.904,8.23,-0.389,-5.651,-0.415,45.17,79.138,,,
1.225,-0.0103,-4.6196,0.0811,1.9608,-109.2437,-1.3305,39.1,99501.0,,,,,,,,,,
1.23,,,,,,,,,83.699,8.176,-0.392,-5.729,-0.412,47.11,79.663,,,
1.235,0.0356,-4.626,0.1289,2.8711,-111.0644,-1.5406,39.1,99482.0,,,,,,,,,,
1.24,,,,,,,,,84.494,8.121,-0.393,-5.807,-0.408,47.2,79.701,,,
1.245,0.0205,-4.646,0.0854,3.2913,-111.4146,-1.3305,39.1,99472.0,,,,,,,,,,
1.25,,,,,,,,,85.289,8.064,-0.394,-5.886,-0.404,47.2,79.759,,,
1.255,0.019,-4.6577,0.1191,3.8515,-111.8347,-1.6106,39.1,99453.0,,,,,,,,,,
1.26,,,,,,,,,86.087,8.006,-0.395,-5.964,-0.4,48.04,80.026,,,
1.265,0.0312,-4.6797,0.0825,4.972,-113.5154,-1.6106,39.1,99439.0,,,,,,,,,,
1.27,,,,,,,,,86.887,7.947,-0.395,-6.043,-0.395,49.56,80.198,,,
1.275,0.0889,-4.6631,0.0508,5.4622,-114.916,-2.2409,39.1,99445.0,,,,,,,,,,
1.28,,,,,,,,,87.69,7.887,-0.394,-6.122,-0.39,50.83,80.474,,,
1.285,0.0166,-4.6943,0.1323,6.9328,-116.3866,-2.0308,39.1,99440.0,,,,,,,,,,
1.29,,,,,,,,,88.493,7.825,-0.392,-6.201,-0.384,51.17,80.599,,,
1.295,0.0435,-4.7017,0.0596,6.1625,-115.8964,-3.0112,39.1,99435.0,,,,,,,,,,
1.3,,,,,,,,,89.301,7.762,-0.39,-6.281,-0.378,52.01,80.99,,,
1.305,0.0483,-4.6953,0.0059,6.8627,-116.8768,-3.3613,39.1,99415.0,,,,,,,,,,
1.31,,,,,,,,,90.111,7.698,-0.388,-6.359,-0.373,53.62,81.219,,,
1.315,0.0356,-4.7222,0.0757,7.563,-119.1877,-3.7815,39.1,99399.0,,,,,,,,,,
1.32,,,,,,,,,90.922,7.632,-0.385,-6.438,-0.368,54.29,81.324,,,
1.325,0.0396,-4.7231,0.0859,6.9328,-119.7479,-4.2017,39.1,99400.0,,,,,,,,,,
1.33,,,,,,,,,91.736,7.565,-0.381,-6.518,-0.362,54.72,81.648,,,
1.335,0.0308,-4.7383,-0.0078,6.5826,-119.8179,-4.4118,39.1,99350.0,,,,,,,,,,
1.34,,,,,,,,,92.553,7.496,-0.378,-6.597,-0.357,54.8,81.935,,,
1.345,0.0254,-4.7451,0.0664,7.493,-121.4986,-4.4118,39.1,99363.0,,,,,,,,,,
1.35,,,,,,,,,93.369,7.427,-0.374,-6.676,-0.352,55.14,81.954,,,
1.355,0.0718,-4.7598,0.0947,7.0728,-122.6891,-5.042,39.1,99372.0,,,,,,,,,,
1.36,,,,,,,,,94.186,7.355,-0.37,-6.755,-0.347,56.83,82.078,,,
1.365,0.0991,-4.7539,0.0186,6.5126,-123.1793,-5.5322,39.1,99353.0,,,,,,,,,,
1.37,,,,,,,,,95.008,7.282,-0.366,-6.834,-0.342,58.1,82.478,39.3899040222168,-8.289403915405273,12.0
1.375,0.0581,-4.7788,0.0786,7.563,-125.9104,-5.7423,39.1,99364.0,,,,,,,,,,
1.38,,,,,,,,,95.83,7.208,-0.362,-6.912,-0.338,58.18,82.498,,,
1.385,0.0518,-4.7988,0.0874,7.6331,-126.4706,-7.0028,39.1,99314.0,,,,,,,,,,
1.39,,,,,,,,,96.655,7.132,-0.357,-6.992,-0.333,60.46,82.793,,,
1.395,0.0942,-4.7852,0.0605,7.0728,-126.1204,-7.8431,39.1,99343.0,,,,,,,,,,
1.4,,,,,,,,,97.482,7.054,-0.351,-7.071,-0.329,61.14,82.927,,,
1.405,0.0356,-4.8076,0.0532,7.493,-127.591,-7.9832,39.1,99322.0,,,,,,,,,,
1.41,,,,,,,,,98.309,6.976,-0.345,-7.149,-0.326,61.23,83.099,,,
1.415,0.0503,-4.8179,0.0674,7.493,-128.7815,-9.0336,39.1,99314.0,,,,,,,,,,
1.42,,,,,,,,,99.138,6.895,-0.339,-7.226,-0.322,62.07,83.213,,,
1.425,0.0996,-4.8179,0.0586,7.1429,-129.6919,-9.944,39.1,99286.0,,,,,,,,,,
1.43,,,,,,,,,99.97,6.813,-0.332,-7.304,-0.319,62.32,83.585,,,
1.435,0.0366,-4.8467,0.0889,7.563,-131.3725,-10.014,39.1,99262.0,,,,,,,,,,
1.44,,,,,,,,,100.802,6.73,-0.325,-7.382,-0.317,62.92,83.709,,,
1.445,0.0229,-4.8496,0.0903,7.2829,-132.2829,-11.0644,39.1,99266.0,,,,,,,,,,
1.45,,,,,,,,,101.638,6.645,-0.317,-7.459,-0.314,64.69,83.977,,,
1.455,0.041,-4.8472,0.1138,7.7731,-133.6835,-11.6947,39.1,99245.0,,,,,,,,,,
1.46,,,,,,,,,102.475,6.558,-0.309,-7.536,-0.312,65.37,84.148,,,
1.465,0.0186,-4.8521,0.0947,7.7731,-134.7339,-11.6947,39.1,99219.0,,,,,,,,,,
1.47,,,,,,,,,103.313,6.469,-0.3,-7.613,-0.31,65.37,84.349,,,
1.475,0.0039,-4.8662,0.0879,8.0532,-135.9944,-11.9048,39.1,99243.0,,,,,,,,,,
1.48,,,,,,,,,104.153,6.379,-0.291,-7.689,-0.308,67.74,84.349,,,
1.485,0.0303,-4.8711,0.1118,8.6134,-137.7451,-12.395,39.1,99202.0,,,,,,,,,,
1.49,,,,,,,,,104.998,6.287,-0.282,-7.765,-0.306,69.43,84.912,,,
1.495,0.0244,-4.8901,0.0977,9.0336,-138.9356,-12.395,39.1,99202.0,,,,,,,,,,
1.5,,,,,,,,,105.843,6.192,-0.272,-7.841,-0.304,69.77,84.921,,,
1.505,-0.0083,-4.9067,0.0859,9.4538,-140.2661,-12.395,39.1,99186.0,,,,,,,,,,
1.51,,,,,,,,,106.688,6.096,-0.262,-7.916,-0.301,71.21,84.969,,,
1.515,0.0137,-4.9058,0.0854,9.8039,-141.5266,-12.8151,39.1,99191.0,,,,,,,,,,
1.52,,,,,,,,,107.534,5.999,-0.252,-7.991,-0.298,71.38,85.017,,,
1.525,0.0039,-4.9438,0.0767,9.8039,-142.2269,-12.7451,39.1,99156.0,,,,,,,,,,
1.53,,,,,,,,,108.383,5.899,-0.241,-8.065,-0.294,73.41,85.294,,,
1.535,-0.0063,-4.895,0.0615,9.8739,-142.9972,-12.8151,39.1,99140.0,,,,,,,,,,
1.54,,,,,,,,,109.233,5.798,-0.23,-8.138,-0.291,74.85,85.389,,,
1.545,-0.0044,-4.894,0.0708,9.8039,-144.1877,-12.9552,39.1,99120.0,,,,,,,,,,
1.55,,,,,,,,,110.085,5.696,-0.219,-8.21,-0.288,74.85,85.761,,,
1.555,-0.0073,-4.9297,0.0801,9.944,-145.1681,-12.8852,39.1,99115.0,,,,,,,,,,
1.56,,,,,,,,,110.939,5.592,-0.208,-8.282,-0.284,75.78,85.838,,,
1.565,-0.0083,-4.9209,0.0713,9.8039,-146.2885,-12.8852,39.1,99115.0,,,,,,,,,,
1.57,,,,,,,,,111.792,5.486,-0.197,-8.353,-0.281,76.2,85.857,,,
1.575,-0.0308,-4.9346,0.0654,9.6639,-147.1989,-12.605,39.1,99081.0,,,,,,,,,,
1.58,,,,,,,,,112.648,5.378,-0.187,-8.423,-0.277,78.75,86.067,,,
1.585,-0.0278,-4.9546,0.083,9.4538,-148.2493,-12.8151,39.1,99074.0,,,,,,,,,,
1.59,,,,,,,,,113.504,5.269,-0.176,-8.492,-0.274,80.1,86.086,,,
1.595,-0.0488,-4.9756,0.0596,9.5938,-150.2101,-12.0448,39.1,99054.0,,,,,,,,,,
1.6,,,,,,,,,114.364,5.159,-0.165,-8.56,-0.27,81.8,86.362,,,
1.605,-0.0381,-4.9946,0.0537,9.4538,-150.9804,-11.9748,39.1,99052.0,,,,,,,,,,
1.61,,,,,,,,,115.225,5.046,-0.155,-8.627,-0.267,82.22,86.534,,,
1.615,-0.0352,-5.0527,0.0645,9.5238,-152.451,-11.4846,39.1,99032.0,,,,,,,,,,
1.62,,,,,,,,,116.085,4.931,-0.145,-8.694,-0.263,82.22,86.63,,,
1.625,-0.0635,-5.0903,0.0522,9.3137,-153.0812,-10.8543,39.1,99021.0,,,,,,,,,,
1.63,,,,,,,,,116.948,4.814,-0.135,-8.759,-0.258,85.1,86.63,,,
1.635,-0.0425,-5.0762,0.0186,9.0336,-155.8123,-10.7143,39.1,99011.0,,,,,,,,,,
1.64,,,,,,,,,117.813,4.697,-0.126,-8.823,-0.254,85.69,87.021,,,
1.645,-0.0757,-5.0664,0.1323,9.7339,-157.563,-9.7339,39.1,98983.0,,,,,,,,,,
1.65,,,,,,,,,118.683,4.576,-0.117,-8.887,-0.25,87.39,87.431,,,
1.655,-0.0806,-4.9849,0.0039,8.4734,-157.3529,-9.1737,39.1,98995.0,,,,,,,,,,
1.66,,,,,,,,,119.556,4.453,-0.109,-8.949,-0.244,87.56,87.803,,,
1.665,-0.0737,-5.0088,0.0796,9.8739,-157.6331,-8.5434,39.1,98966.0,,,,,,,,,,
1.67,,,,,,,,,120.429,4.329,-0.101,-9.01,-0.24,89.25,87.803,,,
1.675,-0.0684,-5.1001,0.0884,9.4538,-159.3838,-7.9132,39.1,98969.0,,,,,,,,,,
1.68,,,,,,,,,121.305,4.204,-0.094,-9.069,-0.234,90.19,88.08,,,
1.685,-0.0591,-5.2222,0.0815,9.5938,-159.3137,-7.2129,39.1,98907.0,,,,,,,,,,
1.69,,,,,,,,,122.188,4.077,-0.087,-9.127,-0.228,91.04,88.939,,,
1.695,-0.0571,-5.21,0.063,10.2241,-160.2941,-6.7927,39.0,98913.0,,,,,,,,,,
1.7,,,,,,,,,123.075,3.95,-0.081,-9.183,-0.222,92.39,89.206,,,
1.705,-0.084,-5.1499,0.0747,10.2941,-162.3249,-6.1625,39.1,98890.0,,,,,,,,,,
1.71,,,,,,,,,123.963,3.821,-0.074,-9.238,-0.215,93.41,89.397,,,
1.715,-0.0615,-5.1392,0.0884,10.4342,-163.0252,-5.7423,39.1,98895.0,,,,,,,,,,
1.72,,,,,,,,,124.854,3.689,-0.069,-9.291,-0.207,94.6,89.674,,,
1.725,-0.0698,-5.1016,0.0698,10.6443,-164.0756,-4.972,39.1,98887.0,,,,,,,,,,
1.73,,,,,,,,,125.745,3.556,-0.063,-9.343,-0.2,94.85,89.865,,,
1.735,-0.0859,-5.1089,0.0747,11.4146,-165.1961,-4.3417,39.1,98883.0,,,,,,,,,,
1.74,,,,,,,,,126.641,3.422,-0.058,-9.394,-0.191,99.35,89.893,,,
1.745,-0.0659,-5.0913,0.0728,11.4846,-165.8263,-4.0616,39.1,98859.0,,,,,,,,,,
1.75,,,,,,,,,127.536,3.286,-0.054,-9.442,-0.182,99.86,90.036,,,
1.755,-0.1064,-5.0747,0.0576,11.6246,-167.507,-2.9412,39.1,98861.0,,,,,,,,,,
1.76,,,,,,,,,128.432,3.148,-0.049,-9.489,-0.173,100.88,90.036,,,
1.765,-0.1045,-5.0464,0.0771,12.465,-168.6975,-2.521,39.1,98801.0,,,,,,,,,,
1.77,,,,,,,,,129.327,3.009,-0.046,-9.534,-0.164,101.3,90.036,,,
1.775,-0.0737,-5.0454,0.0552,12.2549,-169.3978,-1.6807,39.0,98798.0,,,,,,,,,,
1.78,,,,,,,,,130.22,2.868,-0.043,-9.578,-0.153,101.56,90.036,,,
1.785,-0.1069,-5.0381,0.0513,12.8151,-170.3782,-0.4902,39.1,98791.0,,,,,,,,,,
1.79,,,,,,,,,131.111,2.726,-0.04,-9.62,-0.143,101.9,89.893,,,
1.795,-0.0879,-5.0322,0.0649,13.5854,-170.9384,-0.2101,39.0,98784.0,,,,,,,,,,
1.8,,,,,,,,,132.0,2.582,-0.038,-9.659,-0.131,103.76,89.693,,,
1.805,-0.0767,-5.0322,0.0322,13.2353,-171.6387,0.7003,39.0,98778.0,,,,,,,,,,
1.81,,,,,,,,,132.884,2.438,-0.037,-9.697,-0.119,103.93,89.368,,,
1.815,-0.0791,-5.0405,0.0366,13.7255,-172.7591,1.3305,39.0,98761.0,,,,,,,,,,
1.82,,,,,,,,,133.768,2.292,-0.036,-9.733,-0.107,108.86,88.815,,,
1.825,-0.0649,-5.0483,0.064,14.2157,-173.2493,1.7507,39.0,98755.0,,,,,,,,,,
1.83,,,,,,,,,134.649,2.145,-0.036,-9.766,-0.095,109.11,88.796,,,
1.835,-0.0601,-5.0449,0.0273,14.1457,-173.3894,2.2409,39.1,98707.0,,,,,,,,,,
1.84,,,,,,,,,135.53,1.997,-0.035,-9.798,-0.082,109.71,88.796,,,
1.845,-0.062,-5.0537,0.0176,14.1457,-174.0196,2.6611,39.1,98690.0,,,,,,,,,,
1.85,,,,,,,,,136.41,1.848,-0.036,-9.827,-0.068,110.3,88.786,,,
1.855,-0.043,-5.0527,0.0273,14.4258,-174.6499,2.7311,39.0,98689.0,,,,,,,,,,
1.86,,,,,,,,,137.288,1.698,-0.036,-9.854,-0.055,110.81,88.786,,,
1.865,-0.0449,-5.0679,0.0054,13.3754,-174.7199,3.2213,39.1,98681.0,,,,,,,,,,
1.87,,,,,,,,,138.167,1.548,-0.037,-9.879,-0.042,112.26,88.786,39.3899040222168,-8.289403915405273,12.0
1.875,-0.0566,-5.062,0.0083,13.5854,-175.5602,3.3613,39.0,98624.0,,,,,,,,,,
1.88,,,,,,,,,139.044,1.396,-0.038,-9.901,-0.029,112.77,88.786,,,
1.885,-0.0435,-5.0566,0.0112,13.4454,-176.1905,3.3613,39.0,98626.0,,,,,,,,,,
1.89,,,,,,,,,139.926,1.244,-0.04,-9.922,-0.016,116.85,88.853,,,
1.895,-0.0566,-5.0791,-0.0015,13.6555,-176.1905,3.7815,39.0,98606.0,,,,,,,,,,
1.9,,,,,,,,,140.808,1.091,-0.041,-9.94,-0.003,118.29,88.939,,,
1.905,-0.0483,-5.084,0.0039,13.0252,-176.7507,3.7815,39.0,98615.0,,,,,,,,,,
1.91,,,,,,,,,141.689,0.938,-0.043,-9.955,0.009,118.38,88.958,,,
1.915,-0.0503,-5.0928,-0.0259,12.6751,-177.3109,4.0616,39.0,98592.0,,,,,,,,,,
1.92,,,,,,,,,142.569,0.784,-0.044,-9.969,0.021,119.06,89.015,,,
1.925,-0.0347,-5.0898,-0.0142,11.1345,-178.0112,4.4118,39.0,98563.0,,,,,,,,,,
1.93,,,,,,,,,143.454,0.63,-0.046,-9.979,0.033,123.74,89.12,,,
1.935,-0.0234,-5.1143,-0.021,10.6443,-178.3613,4.6218,39.0,98542.0,,,,,,,,,,
1.94,,,,,,,,,144.339,0.474,-0.049,-9.988,0.044,123.91,89.235,,,
1.945,-0.0107,-5.1279,-0.0244,10.2941,-178.6415,4.6919,39.0,98554.0,,,,,,,,,,
1.95,,,,,,,,,145.225,0.319,-0.051,-9.994,0.054,124.68,89.454,,,
1.955,0.0063,-5.1108,-0.0249,9.7339,-179.8319,4.6218,39.0,98527.0,,,,,,,,,,
1.96,,,,,,,,,146.111,0.162,-0.054,-9.998,0.064,125.44,89.55,,,
1.965,0.0,-5.0454,-0.0347,8.3333,-180.8824,4.5518,39.0,98489.0,,,,,,,,,,
1.97,,,,,,,,,146.998,0.005,-0.056,-9.999,0.074,126.63,89.664,,,
1.975,-0.0112,-5.0552,-0.0205,7.9832,-181.9328,4.4118,39.0,98497.0,,,,,,,,,,
1.98,,,,,,,,,147.886,-0.152,-0.059,-9.998,0.082,129.1,89.664,,,
1.985,0.0059,-5.0898,-0.0161,8.0532,-181.7927,4.1317,39.0,98458.0,,,,,,,,,,
1.99,,,,,,,,,148.773,-0.311,-0.061,-9.994,0.09,129.86,89.664,,,
1.995,0.0054,-5.1064,-0.0391,7.1429,-181.7227,3.9916,39.0,98449.0,,,,,,,,,,
2.0,,,,,,,,,149.659,-0.47,-0.063,-9.988,0.098,130.89,89.664,,,
2.005,0.0259,-5.1353,-0.0171,6.6527,-182.1429,3.6415,39.0,98462.0,,,,,,,,,,
2.01,,,,,,,,,150.546,-0.628,-0.065,-9.979,0.106,132.16,89.721,,,
2.015,0.0063,-5.1235,-0.0283,6.3025,-183.2633,3.5714,39.0,98388.0,,,,,,,,,,
2.02,,,,,,,,,151.436,-0.787,-0.066,-9.968,0.112,134.72,89.989,,,
2.025,0.0151,-5.1143,-0.0386,6.0224,-183.5434,3.2213,39.0,98443.0,,,,,,,,,,
2.03,,,,,,,,,152.326,-0.947,-0.068,-9.954,0.119,135.4,90.075,,,
2.035,0.0298,-5.1274,-0.02,5.3221,-183.5434,2.9412,39.0,98417.0,,,,,,,,,,
2.04,,,,,,,,,153.218,-1.106,-0.069,-9.937,0.125,137.7,90.075,,,
2.045,0.0195,-5.1201,0.0078,4.2017,-184.8739,2.8011,39.0,98357.0,,,,,,,,,,
2.05,,,,,,,,,154.107,-1.265,-0.07,-9.918,0.131,138.04,90.075,,,
2.055,0.0088,-5.1299,-0.0254,4.1317,-185.014,2.521,39.0,98365.0,,,,,,,,,,
2.06,,,,,,,,,154.996,-1.426,-0.07,-9.896,0.135,138.81,90.141,,,
2.065,0.0166,-5.1123,-0.0156,4.6218,-185.9244,2.3109,39.0,98336.0,,,,,,,,,,
2.07,,,,,,,,,155.884,-1.585,-0.07,-9.872,0.14,139.32,90.256,,,
2.075,0.041,-5.126,-0.0137,3.2913,-186.6246,1.8908,39.0,98322.0,,,,,,,,,,
2.08,,,,,,,,,156.773,-1.746,-0.07,-9.845,0.145,141.53,90.256,,,
2.085,0.04,-5.1079,0.0356,2.0308,-186.6246,1.8908,39.0,98300.0,,,,,,,,,,
2.09,,,,,,,,,157.664,-1.906,-0.07,-9.815,0.149,144.01,90.323,,,
2.095,0.0371,-5.1377,-0.0254,1.4006,-188.4454,1.4006,39.0,98288.0,,,,,,,,,,
2.1,,,,,,,,,158.556,-2.066,-0.069,-9.782,0.152,145.97,90.323,,,
2.105,0.0205,-5.1221,-0.0405,1.8207,-188.0252,1.1905,39.0,98258.0,,,,,,,,,,
2.11,,,,,,,,,159.446,-2.227,-0.067,-9.747,0.154,146.65,90.323,,,
2.115,0.0039,-5.1328,-0.0093,1.5406,-189.0056,0.8403,39.0,98244.0,,,,,,,,,,
2.12,,,,,,,,,160.336,-2.387,-0.066,-9.709,0.157,148.44,90.294,,,
2.125,-0.0068,-5.1353,-0.0278,0.0,-188.0952,0.8403,39.0,98224.0,,,,,,,,,,
2.13,,,,,,,,,161.227,-2.547,-0.064,-9.668,0.159,149.63,90.37,,,
2.135,-0.0132,-5.1372,-0.0581,-0.4902,-188.3754,1.1204,39.0,98245.0,,,,,,,,,,
2.14,,,,,,,,,162.117,-2.705,-0.062,-9.625,0.16,151.51,90.37,,,
2.145,0.0293,-5.1333,-0.0024,-1.1905,-189.3557,0.7703,39.0,98175.0,,,,,,,,,,
2.15,,,,,,,,,163.007,-2.864,-0.06,-9.579,0.161,152.53,90.447,,,
2.155,-0.0273,-5.1353,0.0044,-1.1204,-189.6359,1.7507,39.0,98163.0,,,,,,,,,,
2.16,,,,,,,,,163.9,-3.022,-0.057,-9.53,0.161,155.09,90.504,,,
2.165,0.0039,-5.1411,-0.0298,-1.7507,-189.986,1.3305,39.0,98149.0,,,,,,,,,,
2.17,,,,,,,,,164.791,-3.179,-0.055,-9.479,0.161,156.2,90.513,,,
2.175,0.0073,-5.1333,0.0068,-1.9608,-191.3165,1.4706,39.0,98136.0,,,,,,,,,,
2.18,,,,,,,,,165.68,-3.336,-0.053,-9.425,0.16,156.29,90.552,,,
2.185,-0.0322,-5.1299,0.0537,-1.7507,-191.6667,2.2409,39.0,98142.0,,,,,,,,,,
2.19,,,,,,,,,166.569,-3.494,-0.051,-9.368,0.159,157.99,90.552,,,
2.195,0.0083,-5.1484,0.0444,-3.4314,-191.9468,1.8908,39.0,98115.0,,,,,,,,,,
2.2,,,,,,,,,167.462,-3.65,-0.049,-9.308,0.158,162.18,90.513,,,
2.205,-0.0122,-5.125,0.0342,-3.2913,-192.9972,2.591,39.0,98076.0,,,,,,,,,,
2.21,,,,,,,,,168.354,-3.806,-0.047,-9.245,0.156,163.2,90.552,,,
2.215,0.0107,-5.1519,0.1045,-1.7507,-194.4678,2.451,39.0,98076.0,,,,,,,,,,
2.22,,,,,,,,,169.245,-3.961,-0.045,-9.18,0.154,164.4,90.552,,,
2.225,0.0332,-5.1499,0.0669,-1.9608,-194.3978,2.8011,39.0,98073.0,,,,,,,,,,
2.23,,,,,,,,,170.134,-4.117,-0.043,-9.111,0.152,165.0,90.552,,,
2.235,0.0278,-5.1523,0.0713,-0.7703,-195.9384,2.7311,39.0,98020.0,,,,,,,,,,
2.24,,,,,,,,,171.021,-4.271,-0.042,-9.04,0.151,165.51,90.552,,,
2.245,0.0889,-5.1411,0.1299,-0.07,-198.4594,2.3109,39.0,98017.0,,,,,,,,,,
2.25,,,,,,,,,171.91,-4.425,-0.041,-8.965,0.15,167.3,90.666,,,
2.255,0.0962,-5.1401,0.0991,1.9608,-202.2409,0.7003,39.0,97990.0,,,,,,,,,,
2.26,,,,,,,,,172.801,-4.58,-0.04,-8.887,0.15,170.64,90.666,,,
2.265,0.0894,-5.1572,0.1558,3.1513,-204.902,-0.4202,39.0,97988.0,,,,,,,,,,
2.27,,,,,,,,,173.688,-4.736,-0.038,-8.805,0.153,170.64,90.666,,,
2.275,0.1196,-5.1323,0.1294,3.3613,-206.6527,-1.7507,39.0,97987.0,,,,,,,,,,
2.28,,,,,,,,,174.575,-4.893,-0.036,-8.719,0.156,170.89,90.809,,,
2.285,0.0884,-5.1177,0.0908,4.0616,-209.1036,-2.7311,39.0,97954.0,,,,,,,,,,
2.29,,,,,,,,,175.466,-5.05,-0.033,-8.629,0.16,175.42,90.809,,,
2.295,0.063,-5.1221,0.1553,4.972,-211.2745,-3.9916,39.0,97899.0,,,,,,,,,,
2.3,,,,,,,,,176.354,-5.207,-0.03,-8.535,0.166,175.68,90.666,,,
2.305,0.0552,-5.127,0.1597,6.5126,-213.9356,-5.042,39.0,97898.0,,,,,,,,,,
2.31,,,,,,,,,177.242,-5.363,-0.026,-8.437,0.172,177.99,90.666,,,
2.315,0.04,-5.1353,0.1064,6.5826,-214.0056,-5.4622,39.0,97865.0,,,,,,,,,,
2.32,,,,,,,,,178.127,-5.52,-0.022,-8.336,0.18,178.16,90.647,,,
2.325,0.0625,-5.1162,0.1357,8.1232,-216.8067,-6.5826,39.0,97877.0,,,,,,,,,,
2.33,,,,,,,,,179.007,-5.675,-0.017,-8.231,0.188,178.25,90.552,,,
2.335,0.1079,-5.0986,0.1553,7.9832,-217.9972,-7.563,38.9,97833.0,,,,,,,,,,
2.34,,,,,,,,,179.889,-5.83,-0.013,-8.122,0.198,181.07,90.494,,,
2.345,0.0815,-5.1201,0.0879,9.3137,-220.098,-8.1933,39.0,97831.0,,,,,,,,,,
2.35,,,,,,,,,180.775,-5.983,-0.008,-8.009,0.208,185.77,90.389,,,
2.355,0.0605,-5.1187,0.0806,9.1036,-222.549,-9.7339,38.9,97822.0,,,,,,,,,,
2.36,,,,,,,,,181.657,-6.136,-0.003,-7.892,0.219,185.86,90.294,,,
2.365,0.0894,-5.1011,0.1221,7.3529,-223.3894,-10.9944,39.0,97779.0,,,,,,,,,,
2.37,,,,,,,,,182.539,-6.288,0.003,-7.771,0.231,187.66,90.256,39.38972854614258,-8.289196968078613,0.0
2.375,0.0234,-5.1216,0.0742,7.493,-224.8599,-11.4846,38.9,97747.0,,,,,,,,,,
2.38,,,,,,,,,183.419,-6.438,0.011,-7.647,0.242,188.69,90.227,,,
2.385,0.0093,-5.1572,0.0737,9.5938,-226.5406,-12.465,39.0,97715.0,,,,,,,,,,
2.39,,,,,,,,,184.3,-6.587,0.019,-7.519,0.254,191.42,90.256,,,
2.395,-0.0347,-5.1147,0.1167,8.7535,-227.8711,-12.465,38.9,97700.0,,,,,,,,,,
2.4,,,,,,,,,185.178,-6.734,0.027,-7.387,0.267,191.59,90.256,,,
2.405,0.0312,-5.0459,0.0552,8.9636,-228.0112,-12.9552,38.9,97670.0,,,,,,,,,,
2.41,,,,,,,,,186.054,-6.88,0.035,-7.251,0.28,192.37,90.227,,,
2.415,-0.0688,-5.1128,0.0811,6.8627,-226.1204,-12.1148,38.9,97647.0,,,,,,,,,,
2.42,,,,,,,,,186.933,-7.023,0.044,-7.112,0.293,196.05,90.179,,,
2.425,-0.0337,-5.1138,0.0771,8.3333,-229.4118,-13.4454,38.9,97646.0,,,,,,,,,,
2.43,,,,,,,,,187.813,-7.162,0.053,-6.972,0.304,198.79,90.151,,,
2.435,-0.0591,-5.0908,0.0571,6.5826,-229.4118,-12.535,38.9,97599.0,,,,,,,,,,
2.44,,,,,,,,,188.694,-7.3,0.062,-6.826,0.317,201.54,90.151,,,
2.445,-0.0952,-5.1089,0.062,5.9524,-229.3417,-11.9048,38.9,97576.0,,,,,,,,,,
2.45,,,,,,,,,189.575,-7.435,0.072,-6.678,0.328,202.82,90.132,,,
2.455,-0.1206,-5.103,0.0835,8.0532,-229.972,-10.8543,38.9,97587.0,,,,,,,,,,
2.46,,,,,,,,,190.456,-7.567,0.082,-6.528,0.338,205.39,90.113,,,
2.465,-0.1401,-5.104,0.0645,7.563,-230.2521,-9.8039,38.9,97502.0,,,,,,,,,,
2.47,,,,,,,,,191.337,-7.696,0.089,-6.374,0.348,207.36,90.113,,,
2.475,-0.1201,-5.1152,0.0688,6.1625,-229.3417,-8.7535,38.9,97516.0,,,,,,,,,,
2.48,,,,,,,,,192.214,-7.822,0.097,-6.218,0.357,207.45,90.036,,,
2.485,-0.186,-5.1299,0.0225,6.7927,-228.6415,-6.6527,38.9,97531.0,,,,,,,,,,
2.49,,,,,,,,,193.095,-7.945,0.105,-6.059,0.365,211.48,90.036,,,
2.495,-0.1235,-5.1089,0.0293,5.3221,-229.0616,-5.8123,38.9,97505.0,,,,,,,,,,
2.5,,,,,,,,,193.974,-8.064,0.111,-5.899,0.371,212.51,90.036,,,
2.505,-0.1099,-5.083,0.0449,5.3221,-228.6415,-4.2017,38.9,97445.0,,,,,,,,,,
2.51,,,,,,,,,194.852,-8.181,0.117,-5.736,0.376,213.45,90.036,,,
2.515,-0.1348,-5.0845,0.0713,5.5322,-226.8207,-2.6611,38.9,97422.0,,,,,,,,,,
2.52,,,,,,,,,195.732,-8.294,0.123,-5.571,0.38,217.32,90.036,,,
2.525,-0.0962,-5.1064,0.0557,6.7227,-228.5714,-1.9608,38.9,97423.0,,,,,,,,,,
2.53,,,,,,,,,196.611,-8.402,0.128,-5.406,0.382,218.6,89.941,,,
2.535,-0.0767,-5.1025,0.0269,7.2129,-228.9916,-1.0504,38.9,97388.0,,,,,,,,,,
2.54,,,,,,,,,197.488,-8.509,0.132,-5.237,0.385,219.55,89.989,,,
2.545,-0.0913,-5.0981,0.0635,7.8431,-228.1513,0.07,38.9,97355.0,,,,,,,,,,
2.55,,,,,,,,,198.361,-8.612,0.135,-5.065,0.387,219.81,89.941,,,
2.555,-0.0488,-5.1055,0.0405,7.2829,-229.4818,0.07,38.9,97341.0,,,,,,,,,,
2.56,,,,,,,,,199.239,-8.711,0.136,-4.892,0.388,224.7,89.941,,,
2.565,-0.0615,-5.1465,0.0591,7.563,-227.521,1.3305,38.9,97302.0,,,,,,,,,,
2.57,,,,,,,,,200.118,-8.808,0.139,-4.716,0.388,226.59,89.97,39.38968276977539,-8.289156913757324,12.0
2.575,-0.0371,-5.1914,0.0659,5.9524,-228.4314,1.6106,38.9,97331.0,,,,,,,,,,
2.58,,,,,,,,,200.993,-8.9,0.14,-4.54,0.388,226.68,89.97,,,
2.585,-0.1011,-5.189,0.0425,8.5434,-229.972,2.9412,38.9,97258.0,,,,,,,,,,
2.59,,,,,,,,,201.869,-8.989,0.142,-4.361,0.386,229.6,89.97,,,
2.595,0.0361,-5.1938,0.0293,8.9636,-230.4622,1.8207,38.9,97274.0,,,,,,,,,,
2.6,,,,,,,,,202.747,-9.075,0.142,-4.179,0.385,232.44,89.97,,,
2.605,-0.0234,-5.1807,0.0234,7.8431,-231.5826,3.2213,38.9,97252.0,,,,,,,,,,
2.61,,,,,,,,,203.624,-9.157,0.142,-3.995,0.384,233.64,89.989,,,
2.615,-0.0918,-4.8311,0.0635,8.6835,-230.6022,2.9412,38.9,97199.0,,,,,,,,,,
2.62,,,,,,,,,204.506,-9.236,0.143,-3.809,0.382,234.5,90.771,,,
2.625,0.1104,-5.0708,-0.0518,6.5826,-232.423,1.1905,38.9,97205.0,,,,,,,,,,
2.63,,,,,,,,,205.389,-9.311,0.142,-3.622,0.38,236.99,90.771,,,
2.635,-0.0361,-5.3013,0.0571,10.7143,-235.3641,3.1513,38.9,97146.0,,,,,,,,,,
2.64,,,,,,,,,206.272,-9.383,0.144,-3.432,0.378,239.4,90.771,,,
2.645,0.0122,-5.3716,0.0381,6.2325,-235.9244,2.0308,38.9,97160.0,,,,,,,,,,
2.65,,,,,,,,,207.161,-9.452,0.142,-3.238,0.376,240.78,91.439,,,
2.655,0.0684,-5.4448,-0.0293,6.3725,-236.5546,1.4706,38.9,97170.0,,,,,,,,,,
2.66,,,,,,,,,208.047,-9.517,0.144,-3.042,0.373,241.3,91.601,,,
2.665,0.0479,-5.4302,0.0015,5.042,-237.1148,1.6807,38.9,97156.0,,,,,,,,,,
2.67,,,,,,,,,208.939,-9.578,0.146,-2.845,0.371,245.34,91.649,,,
2.675,0.043,-5.2827,0.0269,4.5518,-239.7059,1.1204,38.9,97076.0,,,,,,,,,,
2.68,,,,,,,,,209.827,-9.635,0.149,-2.645,0.368,245.86,91.697,,,
2.685,0.0435,-5.1289,-0.0107,3.7115,-240.8263,0.5602,38.8,97057.0,,,,,,,,,,
2.69,,,,,,,,,210.734,-9.688,0.153,-2.443,0.366,248.36,93.434,,,
2.695,0.0483,-5.0771,-0.0029,5.2521,-242.437,0.0,38.9,97042.0,,,,,,,,,,
2.7,,,,,,,,,211.638,-9.738,0.157,-2.238,0.363,249.22,93.434,,,
2.705,0.0957,-5.0752,0.021,4.7619,-243.8375,-0.9104,38.8,97025.0,,,,,,,,,,
2.71,,,,,,,,,212.537,-9.783,0.16,-2.032,0.361,249.56,93.434,,,
2.715,0.1011,-5.0835,-0.0312,4.6919,-244.8179,-1.6106,38.9,96986.0,,,,,,,,,,
2.72,,,,,,,,,213.434,-9.824,0.164,-1.822,0.36,250.42,93.434,,,
2.725,0.0615,-5.0737,0.0112,2.381,-246.0784,-2.3109,38.8,96947.0,,,,,,,,,,
2.73,,,,,,,,,214.34,-9.861,0.168,-1.612,0.358,256.45,93.434,,,
2.735,0.0503,-5.0435,-0.0117,3.4314,-248.6695,-3.1513,38.8,96949.0,,,,,,,,,,
2.74,,,,,,,,,215.214,-9.893,0.173,-1.399,0.357,258.09,90.428,,,
2.745,0.0327,-5.0239,0.0151,2.1008,-250.2101,-3.8515,38.8,96919.0,,,,,,,,,,
2.75,,,,,,,,,216.077,-9.921,0.178,-1.184,0.357,259.38,89.54,,,
2.755,0.02,-5.0249,0.0605,2.521,-250.8403,-3.7815,38.8,96891.0,,,,,,,,,,
2.76,,,,,,,,,216.938,-9.944,0.185,-0.967,0.357,260.85,89.416,,,
2.765,0.0088,-5.019,0.0015,1.6106,-252.1709,-3.6415,38.8,96888.0,,,,,,,,,,
2.77,,,,,,,,,217.801,-9.963,0.19,-0.748,0.357,264.21,89.378,39.3896369934082,-8.289105415344238,12.0
2.775,0.0503,-5.0186,0.0659,1.6807,-252.9412,-4.4818,38.8,96796.0,,,,,,,,,,
2.78,,,,,,,,,218.666,-9.977,0.197,-0.528,0.356,267.4,89.349,,,
2.785,0.0112,-5.0205,0.1011,-0.5602,-253.5014,-3.7115,38.8,96796.0,,,,,,,,,,
2.79,,,,,,,,,219.52,-9.986,0.203,-0.308,0.356,267.57,88.758,,,
2.795,-0.0151,-5.0112,0.0723,-0.6303,-254.7619,-3.8515,38.8,96788.0,,,,,,,,,,
2.8,,,,,,,,,220.371,-9.991,0.212,-0.086,0.355,269.99,88.395,,,
2.805,0.0103,-5.0229,0.0908,2.381,-257.3529,-4.2017,38.8,96793.0,,,,,,,,,,
2.81,,,,,,,,,221.223,-9.99,0.22,0.135,0.354,272.41,88.376,,,
2.815,-0.0059,-5.0205,0.1284,1.7507,-258.2633,-3.2913,38.8,96740.0,,,,,,,,,,
2.82,,,,,,,,,222.07,-9.984,0.226,0.36,0.353,272.67,88.357,,,
2.825,-0.0269,-5.0117,0.0854,3.9216,-258.9636,-3.1513,38.8,96751.0,,,,,,,,,,
2.83,,,,,,,,,222.93,-9.973,0.232,0.585,0.351,280.61,88.309,,,
2.835,0.0146,-5.0112,0.124,3.2213,-259.6639,-3.1513,38.8,96693.0,,,,,,,,,,
2.84,,,,,,,,,223.784,-9.958,0.236,0.811,0.348,280.61,88.309,,,
2.845,0.0083,-4.979,0.1162,5.9524,-262.3249,-3.0812,38.8,96658.0,,,,,,,,,,
2.85,,,,,,,,,224.634,-9.937,0.24,1.036,0.346,280.87,88.28,,,
2.855,-0.0054,-4.9956,0.0791,6.4426,-263.3754,-2.9412,38.8,96653.0,,,,,,,,,,
2.86,,,,,,,,,225.478,-9.91,0.243,1.264,0.342,281.3,88.271,,,
2.865,0.0337,-4.9888,0.1421,5.6723,-265.4062,-3.3613,38.8,96607.0,,,,,,,,,,
2.87,,,,,,,,,226.324,-9.879,0.244,1.492,0.339,284.5,88.137,,,
2.875,0.0161,-4.9966,0.0903,4.6218,-267.8571,-2.6611,38.8,96643.0,,,,,,,,,,
2.88,,,,,,,,,227.167,-9.841,0.247,1.721,0.336,285.45,88.128,,,
2.885,-0.0303,-4.9927,0.0303,6.5126,-268.2073,-3.0812,38.8,96606.0,,,,,,,,,,
2.89,,,,,,,,,228.014,-9.798,0.25,1.951,0.332,289.51,88.128,,,
2.895,0.0596,-4.9785,0.1016,8.3333,-268.6975,-3.7115,38.8,96528.0,,,,,,,,,,
2.9,,,,,,,,,228.86,-9.75,0.251,2.18,0.328,292.54,87.841,,,
2.905,-0.0654,-4.9756,0.0137,9.1737,-269.958,-3.3613,38.8,96508.0,,,,,,,,,,
2.91,,,,,,,,,229.701,-9.696,0.251,2.409,0.323,292.97,87.822,,,
2.915,0.0942,-4.9604,0.0864,5.8824,-272.8291,-5.112,38.8,96484.0,,,,,,,,,,
2.92,,,,,,,,,230.538,-9.637,0.25,2.637,0.319,293.83,87.765,,,
2.925,-0.0317,-4.9668,0.0474,6.5826,-274.1597,-3.1513,38.8,96476.0,,,,,,,,,,
2.93,,,,,,,,,231.376,-9.571,0.251,2.866,0.316,296.95,87.689,,,
2.935,-0.0293,-4.9448,0.0327,4.6919,-273.1092,-4.3417,38.8,96420.0,,,,,,,,,,
2.94,,,,,,,,,232.206,-9.5,0.252,3.095,0.311,297.03,87.498,,,
2.945,0.0273,-4.936,0.0464,5.8123,-273.5994,-4.8319,38.8,96423.0,,,,,,,,,,
2.95,,,,,,,,,233.048,-9.423,0.254,3.321,0.307,303.78,87.488,,,
2.955,-0.0205,-4.9448,0.0342,8.8936,-274.6499,-4.2717,38.8,96417.0,,,,,,,,,,
2.96,,,,,,,,,233.888,-9.341,0.254,3.545,0.304,305.52,87.431,,,
2.965,-0.0776,-4.936,0.0122,5.1821,-276.1905,-3.7115,38.8,96344.0,,,,,,,,,,
2.97,,,,,,,,,234.726,-9.254,0.253,3.769,0.299,307.6,87.259,,,
2.975,0.0527,-4.9287,0.0693,5.3922,-276.2605,-4.6218,38.8,96281.0,,,,,,,,,,
2.98,,,,,,,,,235.558,-9.16,0.254,3.991,0.294,308.29,87.135,,,
2.985,-0.0586,-4.917,0.0317,4.5518,-276.3305,-2.8011,38.8,96324.0,,,,,,,,,,
2.99,,,,,,,,,236.392,-9.061,0.255,4.211,0.29,312.88,86.83,,,
2.995,0.0234,-4.9004,0.0654,4.0616,-277.3109,-3.9216,38.8,96296.0,,,,,,,,,,
3.0,,,,,,,,,237.222,-8.957,0.257,4.429,0.284,313.14,86.83,,,
3.005,-0.0566,-4.9014,0.0171,4.2017,-277.8711,-2.6611,38.8,96255.0,,,,,,,,,,
3.01,,,,,,,,,238.044,-8.847,0.259,4.645,0.28,313.4,86.658,,,
3.015,-0.0254,-4.8862,0.0532,2.3109,-278.7115,-3.2913,38.8,96208.0,,,,,,,,,,
3.02,,,,,,,,,238.876,-8.732,0.261,4.858,0.274,319.73,86.658,,,
3.025,-0.0142,-4.8682,0.0083,5.9524,-279.902,-2.6611,38.8,96216.0,,,,,,,,,,
3.03,,,,,,,,,239.706,-8.611,0.264,5.07,0.269,321.46,86.515,,,
3.035,-0.0068,-4.8525,0.0298,7.423,-279.6218,-2.451,38.8,96190.0,,,,,,,,,,
3.04,,,,,,,,,240.533,-8.484,0.265,5.279,0.262,323.89,86.286,,,
3.045,0.0273,-4.8618,0.0464,3.5014,-278.6415,-1.8908,38.8,96138.0,,,,,,,,,,
3.05,,,,,,,,,241.354,-8.353,0.264,5.485,0.254,325.19,85.981,,,
3.055,0.02,-4.8359,0.0342,4.2017,-280.7423,-2.0308,38.8,96090.0,,,,,,,,,,
3.06,,,,,,,,,242.175,-8.217,0.266,5.686,0.248,327.44,85.962,,,
3.065,0.0615,-4.8271,0.0552,7.1429,-281.5126,-2.7311,38.8,96112.0,,,,,,,,,,
3.07,,,,,,,,,242.996,-8.075,0.268,5.886,0.241,330.83,85.685,,,
3.075,0.0181,-4.8018,0.0195,6.0224,-283.9636,-2.0308,38.8,96065.0,,,,,,,,,,
3.08,,,,,,,,,243.808,-7.928,0.267,6.083,0.232,331.52,85.332,,,
3.085,0.0361,-4.7778,0.0547,5.2521,-286.2045,-2.451,38.8,96034.0,,,,,,,,,,
3.09,,,,,,,,,244.617,-7.775,0.267,6.278,0.224,333.09,85.208,,,
3.095,0.0923,-4.7764,0.103,4.8319,-287.6751,-3.1513,38.8,96007.0,,,,,,,,,,
3.1,,,,,,,,,245.43,-7.615,0.267,6.471,0.216,337.6,85.026,,,
3.105,0.0332,-4.7539,0.0029,4.1317,-288.5854,-3.2913,38.8,95983.0,,,,,,,,,,
3.11,,,,,,,,,246.239,-7.451,0.267,6.66,0.209,339.86,84.702,,,
3.115,0.0127,-4.7432,0.0728,1.4006,-290.1261,-3.7815,38.8,95944.0,,,,,,,,,,
3.12,,,,,,,,,247.045,-7.28,0.268,6.846,0.202,341.77,84.53,,,
3.125,0.0762,-4.7295,0.0596,2.8011,-290.7563,-4.4818,38.8,95908.0,,,,,,,,,,
3.13,,,,,,,,,247.845,-7.104,0.269,7.029,0.197,343.95,84.034,,,
3.135,0.0332,-4.6904,0.0444,3.7815,-293.5574,-3.7815,38.8,95905.0,,,,,,,,,,
3.14,,,,,,,,,248.641,-6.924,0.269,7.207,0.191,346.64,83.566,,,
3.145,0.0635,-4.6704,0.1206,6.2325,-296.5686,-4.972,38.8,95890.0,,,,,,,,,,
3.15,,,,,,,,,249.437,-6.737,0.269,7.382,0.184,348.99,83.538,,,
3.155,0.063,-4.6538,0.0532,3.0812,-297.6891,-5.4622,38.8,95857.0,,,,,,,,,,
3.16,,,,,,,,,250.227,-6.543,0.267,7.554,0.176,351.07,83.099,,,
3.165,0.0327,-4.6509,0.0522,6.0224,-299.3697,-6.2325,38.8,95815.0,,,,,,,,,,
3.17,,,,,,,,,251.018,-6.345,0.265,7.722,0.17,354.47,82.889,39.38954544067383,-8.28898811340332,12.0
3.175,0.0444,-4.6279,0.0332,6.5826,-301.3305,-6.7227,38.8,95784.0,,,,,,,,,,
3.18,,,,,,,,,251.808,-6.141,0.262,7.886,0.163,357.6,82.622,,,
3.185,-0.002,-4.5913,0.0269,7.6331,-301.6106,-6.7227,38.7,95781.0,,,,,,,,,,
3.19,,,,,,,,,252.584,-5.931,0.257,8.045,0.155,357.86,81.858,,,
3.195,-0.0137,-4.5752,0.0181,2.3109,-302.2409,-6.5126,38.7,95687.0,,,,,,,,,,
3.2,,,,,,,,,253.353,-5.717,0.252,8.198,0.146,359.17,81.467,,,
3.205,-0.0205,-4.5352,0.0151,0.7003,-301.8908,-6.1625,38.8,95668.0,,,,,,,,,,
3.21,,,,,,,,,254.119,-5.499,0.25,8.347,0.141,362.04,81.142,,,
3.215,-0.0493,-4.5181,0.0762,3.7815,-303.0812,-5.1821,38.7,95675.0,,,,,,,,,,
3.22,,,,,,,,,254.888,-5.277,0.248,8.489,0.137,365.69,81.085,,,
3.225,-0.0449,-4.5049,0.0869,1.8207,-302.521,-4.8319,38.7,95637.0,,,,,,,,,,
3.23,,,,,,,,,255.654,-5.05,0.246,8.626,0.13,368.39,80.637,,,
3.235,-0.0884,-4.4443,0.0337,4.2717,-301.6106,-4.0616,38.7,95613.0,,,,,,,,,,
3.24,,,,,,,,,256.406,-4.821,0.245,8.756,0.124,368.66,79.921,,,
3.245,0.0093,-4.3921,0.1045,4.7619,-303.6415,-2.6611,38.7,95595.0,,,,,,,,,,
3.25,,,,,,,,,257.17,-4.588,0.243,8.88,0.116,376.85,79.606,,,
3.255,-0.0156,-4.3838,0.0566,5.042,-301.8207,-0.9804,38.7,95543.0,,,,,,,,,,
3.26,,,,,,,,,257.923,-4.351,0.241,8.999,0.107,377.89,78.824,,,
3.265,-0.0083,-4.3438,0.0566,5.6723,-303.5714,-1.2605,38.7,95534.0,,,,,,,,,,
3.27,,,,,,,,,258.667,-4.113,0.241,9.111,0.097,378.5,78.49,,,
3.275,0.0649,-4.3145,0.085,5.6022,-306.2325,-1.8908,38.7,95500.0,,,,,,,,,,
3.28,,,,,,,,,259.408,-3.87,0.24,9.217,0.087,381.21,78.232,,,
3.285,0.0234,-4.2803,0.0645,1.6106,-302.9412,-0.9104,38.7,95495.0,,,,,,,,,,
3.29,,,,,,,,,260.137,-3.622,0.238,9.317,0.076,383.3,77.049,,,
3.295,0.0547,-4.2461,0.1353,7.0028,-305.8824,-1.6807,38.7,95449.0,,,,,,,,,,
3.3,,,,,,,,,260.852,-3.374,0.239,9.409,0.069,384.87,76.028,,,
3.305,0.0688,-4.2075,0.1333,4.902,-306.1625,-1.8908,38.7,95453.0,,,,,,,,,,
3.31,,,,,,,,,261.572,-3.122,0.237,9.496,0.057,389.41,75.865,,,
3.315,-0.0166,-4.1514,0.0972,1.2605,-309.1036,-2.8711,38.7,95359.0,,,,,,,,,,
3.32,,,,,,,,,262.278,-2.867,0.235,9.577,0.047,390.2,75.083,,,
3.325,-0.0156,-4.126,0.1099,6.7927,-310.3641,-2.8711,38.7,95343.0,,,,,,,,,,
3.33,,,,,,,,,262.98,-2.608,0.233,9.65,0.04,393.16,74.51,,,
3.335,0.0273,-4.0967,0.0845,10.7143,-313.5854,-3.2913,38.7,95291.0,,,,,,,,,,
3.34,,,,,,,,,263.669,-2.345,0.23,9.718,0.029,393.6,73.842,,,
3.345,-0.1255,-4.0864,0.0229,11.8347,-315.5462,-1.6106,38.7,95288.0,,,,,,,,,,
3.35,,,,,,,,,264.355,-2.078,0.225,9.778,0.014,397.27,73.174,,,
3.355,0.0298,-4.0342,0.1064,7.6331,-317.437,-3.7115,38.7,95273.0,,,,,,,,,,
3.36,,,,,,,,,265.027,-1.808,0.221,9.832,-0.001,397.62,72.42,,,
3.365,0.0293,-3.9976,0.0464,8.4734,-314.5658,-1.6807,38.7,95260.0,,,,,,,,,,
3.37,,,,,,,,,265.703,-1.535,0.216,9.878,-0.013,405.49,71.323,39.38947677612305,-8.288928985595703,10.0
3.375,-0.0479,-3.9785,0.0117,11.1345,-317.6471,-1.9608,38.7,95173.0,,,,,,,,,,
3.38,,,,,,,,,266.37,-1.264,0.213,9.917,-0.026,406.88,70.827,,,
3.385,0.0771,-3.9307,0.0273,8.4734,-316.7367,-2.9412,38.7,95137.0,,,,,,,,,,
3.39,,,,,,,,,267.037,-0.988,0.209,9.948,-0.042,411.43,70.254,,,
3.395,0.084,-3.8931,0.1182,9.2437,-317.3669,-2.7311,38.7,95133.0,,,,,,,,,,
3.4,,,,,,,,,267.696,-0.713,0.204,9.972,-0.055,411.69,70.054,,,
3.405,-0.0356,-3.8628,0.0239,15.6162,-321.1485,-3.0812,38.7,95137.0,,,,,,,,,,
3.41,,,,,,,,,268.34,-0.437,0.199,9.988,-0.069,413.01,69.033,,,
3.415,0.0474,-3.8081,-0.0811,3.0112,-320.5882,-5.112,38.7,95100.0,,,,,,,,,,
3.42,,,,,,,,,268.973,-0.157,0.193,9.996,-0.088,414.14,68.317,,,
3.425,-0.0581,-3.79,0.0234,11.5546,-315.8263,-3.6415,38.7,95054.0,,,,,,,,,,
3.43,,,,,,,,,269.617,0.122,0.186,9.997,-0.096,421.76,67.945,,,
3.435,-0.0352,-3.7432,0.0278,3.2913,-316.9468,-4.3417,38.7,95007.0,,,,,,,,,,
3.44,,,,,,,,,270.253,0.398,0.18,9.989,-0.111,424.91,67.01,,,
3.445,0.0083,-3.708,-0.002,4.6919,-310.8543,-3.4314,38.7,95025.0,,,,,,,,,,
3.45,,,,,,,,,270.873,0.674,0.173,9.975,-0.119,424.91,66.275,,,
3.455,-0.0396,-3.686,0.0122,6.1625,-313.2353,-2.521,38.7,94924.0,,,,,,,,,,
3.46,,,,,,,,,271.482,0.944,0.166,9.953,-0.129,425.26,65.683,,,
3.465,0.0405,-3.6328,0.0034,2.521,-315.7563,-3.2213,38.7,94962.0,,,,,,,,,,
3.47,,,,,,,,,272.08,1.216,0.161,9.923,-0.139,428.15,64.614,,,
3.475,0.0698,-3.5938,0.02,-1.4706,-315.2661,-3.8515,38.7,94892.0,,,,,,,,,,
3.48,,,,,,,,,272.678,1.489,0.154,9.886,-0.146,432.19,64.261,,,
3.485,-0.0044,-3.5942,0.0356,3.9916,-319.6078,-3.2913,38.7,94840.0,,,,,,,,,,
3.49,,,,,,,,,273.267,1.76,0.146,9.841,-0.15,434.73,63.345,,,
3.495,0.0947,-3.5444,-0.002,3.3613,-319.8179,-4.902,38.7,94797.0,,,,,,,,,,
3.5,,,,,,,,,273.846,2.034,0.139,9.788,-0.158,436.31,62.658,,,
3.505,0.0342,-3.5112,0.0825,3.8515,-320.028,-4.0616,38.7,94841.0,,,,,,,,,,
3.51,,,,,,,,,274.425,2.307,0.131,9.727,-0.166,440.25,62.229,,,
3.515,-0.0376,-3.4844,0.0806,-1.4006,-320.2381,-3.9916,38.7,94816.0,,,,,,,,,,
3.52,,,,,,,,,274.995,2.578,0.123,9.659,-0.174,443.59,61.188,,,
3.525,-0.0073,-3.4507,0.0156,2.8711,-323.8095,-4.6919,38.7,94730.0,,,,,,,,,,
3.53,,,,,,,,,275.558,2.847,0.114,9.583,-0.177,446.4,60.435,,,
3.535,0.0327,-3.4248,0.0811,3.2213,-322.9692,-4.2717,38.7,94754.0,,,,,,,,,,
3.54,,,,,,,,,276.126,3.116,0.106,9.499,-0.184,450.87,60.425,,,
3.545,-0.0317,-3.4014,0.0918,6.7927,-323.9496,-3.4314,38.7,94690.0,,,,,,,,,,
3.55,,,,,,,,,276.676,3.383,0.098,9.407,-0.191,450.96,59.461,,,
3.555,0.0049,-3.3716,0.0054,2.3109,-321.8487,-3.5714,38.7,94679.0,,,,,,,,,,
3.56,,,,,,,,,277.219,3.647,0.091,9.308,-0.201,453.07,58.812,,,
3.565,0.0361,-3.2998,0.123,5.6723,-325.4902,-3.9216,38.7,94581.0,,,,,,,,,,
3.57,,,,,,,,,277.753,3.907,0.083,9.202,-0.206,454.74,58.287,39.38941955566406,-8.288878440856934,9.0
3.575,-0.0127,-3.2861,0.0513,0.5602,-327.8011,-3.3613,38.7,94573.0,,,,,,,,,,
3.58,,,,,,,,,278.283,4.167,0.076,9.087,-0.215,458.52,57.629,,,
3.585,0.062,-3.2598,0.0444,0.0,-328.9216,-5.1821,38.7,94550.0,,,,,,,,,,
3.59,,,,,,,,,278.807,4.426,0.067,8.964,-0.219,460.63,57.123,,,
3.595,0.021,-3.2437,0.1562,5.3922,-333.9636,-4.3417,38.7,94502.0,,,,,,,,,,
3.6,,,,,,,,,279.329,4.681,0.056,8.833,-0.223,464.14,56.665,,,
3.605,0.0786,-3.2134,0.0659,4.2717,-334.2437,-6.0924,38.7,94488.0,,,,,,,,,,
3.61,,,,,,,,,279.839,4.936,0.048,8.693,-0.231,465.11,56.083,,,
3.615,0.1479,-3.1621,0.1562,3.0812,-336.5546,-7.1429,38.7,94439.0,,,,,,,,,,
3.62,,,,,,,,,280.354,5.188,0.039,8.545,-0.238,473.73,54.68,,,
3.625,0.1113,-3.1338,0.1831,5.7423,-340.056,-8.2633,38.7,94454.0,,,,,,,,,,
3.63,,,,,,,,,280.859,5.437,0.027,8.389,-0.245,474.43,54.413,,,
3.635,0.0269,-3.1113,0.0273,9.1036,-339.916,-8.9636,38.7,94388.0,,,,,,,,,,
3.64,,,,,,,,,281.357,5.683,0.017,8.223,-0.255,476.46,53.898,,,
3.645,-0.0786,-3.0967,0.085,10.084,-340.4062,-8.8235,38.7,94387.0,,,,,,,,,,
3.65,,,,,,,,,281.857,5.924,0.007,8.051,-0.266,480.69,53.583,,,
3.655,-0.022,-3.0591,0.1543,11.6947,-341.0364,-10.5042,38.7,94334.0,,,,,,,,,,
3.66,,,,,,,,,282.345,6.161,-0.001,7.871,-0.278,481.92,52.991,,,
3.665,-0.2827,-3.9214,0.001,6.5826,-338.8655,-5.3922,38.7,94318.0,,,,,,,,,,
3.67,,,,,,,,,282.825,6.392,-0.011,7.684,-0.292,484.91,51.989,,,
3.675,-0.0708,-3.5596,-0.1001,4.8319,-335.7143,-8.2633,38.7,94300.0,,,,,,,,,,
3.68,,,,,,,,,283.3,6.616,-0.019,7.491,-0.299,486.23,51.989,,,
3.685,-0.0527,-3.3696,0.0439,7.8431,-331.0924,-4.2717,38.7,94329.0,,,,,,,,,,
3.69,,,,,,,,,283.781,6.833,-0.031,7.294,-0.307,490.73,51.989,,,
3.695,-0.1069,-3.2373,-0.021,6.3025,-329.2017,-2.9412,38.7,94226.0,,,,,,,,,,
3.7,,,,,,,,,284.253,7.041,-0.038,7.093,-0.314,490.82,51.989,,,
3.705,0.0264,-3.0928,-0.0273,5.2521,-328.7115,-3.7815,38.7,94149.0,,,,,,,,,,
3.71,,,,,,,,,284.731,7.242,-0.045,6.888,-0.319,495.49,51.989,,,
3.715,0.0645,-2.9775,0.0884,2.381,-327.521,-2.9412,38.7,94146.0,,,,,,,,,,
3.72,,,,,,,,,285.197,7.436,-0.053,6.677,-0.323,495.93,51.436,,,
3.725,-0.0591,-2.9175,0.0796,7.8431,-327.9412,-1.9608,38.7,94114.0,,,,,,,,,,
3.73,,,,,,,,,285.652,7.624,-0.063,6.461,-0.325,496.9,50.997,,,
3.735,0.0332,-2.8726,0.0005,1.0504,-329.2017,-3.0812,38.7,94081.0,,,,,,,,,,
3.74,,,,,,,,,286.102,7.806,-0.068,6.24,-0.329,498.49,50.71,,,
3.745,0.0537,-2.8271,-0.0151,5.8123,-327.1008,-2.6611,38.7,94036.0,,,,,,,,,,
3.75,,,,,,,,,286.562,7.982,-0.079,6.013,-0.33,505.02,50.634,,,
3.755,0.0024,-2.7949,0.0845,7.2829,-328.6415,-1.6807,38.7,94075.0,,,,,,,,,,
3.76,,,,,,,,,287.034,8.151,-0.085,5.782,-0.333,511.82,50.634,,,
3.765,0.0522,-2.7705,0.0859,4.5518,-328.2213,-2.2409,38.7,93958.0,,,,,,,,,,
3.77,,,,,,,,,287.476,8.313,-0.091,5.546,-0.336,512.09,48.382,39.38936233520508,-8.288819313049316,9.0
3.775,0.1641,-2.7339,0.2261,7.493,-333.4034,-3.6415,38.7,93965.0,,,,,,,,,,
3.78,,,,,,,,,287.906,8.469,-0.098,5.305,-0.337,514.91,47.208,,,
3.785,0.061,-2.7329,0.2095,0.0,-342.7171,-3.2213,38.7,93919.0,,,,,,,,,,
3.79,,,,,,,,,288.328,8.619,-0.104,5.056,-0.341,517.83,46.33,,,
3.795,0.0342,-2.7085,0.0947,5.112,-345.1681,-4.4118,38.7,93881.0,,,,,,,,,,
3.8,,,,,,,,,288.734,8.767,-0.116,4.796,-0.34,518.36,45.443,,,
3.805,0.0562,-2.6548,0.0806,4.5518,-348.2493,-6.0924,38.7,93882.0,,,,,,,,,,
3.81,,,,,,,,,289.136,8.907,-0.124,4.529,-0.343,521.81,44.813,,,
3.815,0.0049,-2.6113,0.0845,11.4146,-348.8796,-4.972,38.7,93845.0,,,,,,,,,,
3.82,,,,,,,,,289.543,9.041,-0.133,4.256,-0.346,528.09,44.336,,,
3.825,-0.0601,-2.5742,-0.0605,11.8347,-344.6779,-5.5322,38.7,93783.0,,,,,,,,,,
3.83,,,,,,,,,289.937,9.166,-0.136,3.979,-0.35,528.71,43.62,,,
3.835,-0.0435,-2.5337,-0.0693,5.4622,-341.7367,-4.972,38.7,93762.0,,,,,,,,,,
3.84,,,,,,,,,290.332,9.282,-0.139,3.701,-0.355,532.16,43.601,,,
3.845,-0.0386,-2.4922,-0.0977,4.0616,-341.0364,-5.1821,38.7,93725.0,,,,,,,,,,
3.85,,,,,,,,,290.724,9.388,-0.147,3.422,-0.356,535.43,43.124,,,
3.855,-0.0479,-2.4419,-0.083,0.4202,-334.5238,-4.4818,38.7,93784.0,,,,,,,,,,
3.86,,,,,,,,,291.098,9.485,-0.156,3.141,-0.358,535.52,42.074,,,
3.865,-0.0137,-2.416,-0.0874,3.9216,-337.3249,-4.4818,38.7,93729.0,,,,,,,,,,
3.87,,,,,,,,,291.463,9.573,-0.167,2.862,-0.357,538.71,41.225,39.38936233520508,-8.288819313049316,9.0
3.875,0.0273,-2.3955,-0.0342,4.5518,-334.2437,-4.0616,38.7,93635.0,,,,,,,,,,
3.88,,,,,,,,,291.83,9.653,-0.175,2.579,-0.357,544.11,40.5,,,
3.885,0.0396,-2.3652,0.0249,8.8936,-334.8039,-3.8515,38.7,93594.0,,,,,,,,,,
3.89,,,,,,,,,292.18,9.724,-0.183,2.296,-0.357,544.2,39.708,,,
3.895,-0.0073,-2.3066,0.0601,-2.591,-334.1036,-3.3613,38.7,93610.0,,,,,,,,,,
3.9,,,,,,,,,292.518,9.787,-0.186,2.01,-0.357,546.06,38.896,,,
3.905,0.0439,-2.2876,0.1113,-0.4202,-338.7955,-3.1513,38.7,93534.0,,,,,,,,,,
3.91,,,,,,,,,292.848,9.841,-0.199,1.724,-0.354,548.99,37.914,,,
3.915,0.1631,-2.2451,0.1855,3.4314,-344.3277,-4.4818,38.7,93527.0,,,,,,,,,,
3.92,,,,,,,,,293.165,9.888,-0.21,1.432,-0.351,549.34,37.408,,,
3.925,0.1333,-2.23,0.1914,1.6106,-349.5098,-4.902,38.7,93497.0,,,,,,,,,,
3.93,,,,,,,,,293.493,9.926,-0.218,1.134,-0.349,557.33,37.007,,,
3.935,-0.0327,-2.209,0.1655,3.1513,-352.3109,-3.5714,38.7,93458.0,,,,,,,,,,
3.94,,,,,,,,,293.814,9.956,-0.228,0.83,-0.347,559.55,36.415,,,
3.945,-0.0215,-2.1797,0.0928,3.1513,-353.0812,-6.0924,38.7,93444.0,,,,,,,,,,
3.95,,,,,,,,,294.119,9.977,-0.236,0.523,-0.343,560.97,35.27,,,
3.955,0.0835,-2.1382,0.083,1.4706,-353.7115,-6.0924,38.7,93358.0,,,,,,,,,,
3.96,,,,,,,,,294.428,9.988,-0.243,0.215,-0.342,566.29,34.898,,,
3.965,0.0972,-2.1177,0.126,3.5714,-355.7423,-6.3725,38.7,93372.0,,,,,,,,,,
3.97,,,,,,,,,294.721,9.99,-0.253,-0.092,-0.34,566.91,34.068,39.38936233520508,-8.288819313049316,7.0
3.975,0.0723,-2.0747,0.0596,2.1008,-360.014,-6.8627,38.7,93314.0,,,,,,,,,,
3.98,,,,,,,,,295.011,9.982,-0.26,-0.403,-0.338,569.58,33.772,,,
3.985,-0.0762,-2.0488,0.0601,6.7227,-357.1429,-5.1821,38.7,93341.0,,,,,,,,,,
3.99,,,,,,,,,295.299,9.964,-0.268,-0.716,-0.335,573.05,33.362,,,
3.995,0.0063,-2.0078,0.0259,6.5126,-357.563,-7.0028,38.7,93282.0,,,,,,,,,,
4.0,,,,,,,,,295.576,9.937,-0.272,-1.027,-0.331,574.29,32.789,,,
4.005,0.0771,-1.9937,0.0283,3.5714,-360.1541,-6.7227,38.7,93281.0,,,,,,,,,,
4.01,,,,,,,,,295.856,9.9,-0.276,-1.337,-0.329,580.69,31.978,,,
4.015,-0.1108,-1.9966,0.0371,4.8319,-360.5042,-4.902,38.7,93242.0,,,,,,,,,,
4.02,,,,,,,,,296.127,9.853,-0.282,-1.648,-0.325,581.93,31.577,,,
4.025,-0.0337,-2.0356,0.0151,2.381,-360.5042,-6.7927,38.7,93150.0,,,,,,,,,,
4.03,,,,,,,,,296.385,9.796,-0.287,-1.958,-0.32,583.45,30.737,,,
4.035,0.0869,-1.9526,0.0181,1.5406,-356.2325,-5.9524,38.7,93136.0,,,,,,,,,,
4.04,,,,,,,,,296.637,9.73,-0.293,-2.265,-0.317,585.85,30.232,,,
4.045,-0.1411,-1.9346,0.1504,2.6611,-357.493,-4.6218,38.7,93127.0,,,,,,,,,,
4.05,,,,,,,,,296.886,9.655,-0.3,-2.567,-0.312,588.7,29.974,,,
4.055,0.0093,-1.8774,0.1411,8.8936,-359.5238,-6.2325,38.7,93136.0,,,,,,,,,,
4.06,,,,,,,,,297.122,9.57,-0.306,-2.867,-0.306,588.79,29.43,,,
4.065,0.0615,-1.8149,0.063,10.1541,-356.3725,-4.902,38.7,93036.0,,,,,,,,,,
4.07,,,,,,,,,297.357,9.475,-0.307,-3.166,-0.3,592.26,29.211,,,
4.075,-0.1592,-1.7788,0.0581,7.7731,-359.3137,-1.9608,38.7,92957.0,,,,,,,,,,
4.08,,,,,,,,,297.607,9.372,-0.306,-3.46,-0.292,600.45,29.153,,,
4.085,-0.0908,-1.6992,0.1279,5.1821,-359.0336,-4.2017,38.7,92943.0,,,,,,,,,,
4.09,,,,,,,,,297.845,9.259,-0.308,-3.753,-0.282,601.7,28.352,,,
4.095,0.0249,-1.6416,0.1543,9.8039,-359.1036,-3.6415,38.7,92920.0,,,,,,,,,,
4.1,,,,,,,,,298.071,9.137,-0.31,-4.041,-0.274,601.7,27.999,,,
4.105,-0.0205,-1.6333,0.1279,8.6835,-356.8627,-2.3109,38.7,92910.0,,,,,,,,,,
4.11,,,,,,,,,298.278,9.006,-0.309,-4.326,-0.264,602.5,26.882,,,
4.115,-0.043,-1.5972,0.0723,10.9944,-357.0028,-1.5406,38.7,92859.0,,,,,,,,,,
4.12,,,,,,,,,298.49,8.867,-0.31,-4.605,-0.252,610.61,25.661,,,
4.125,0.062,-1.5288,0.0303,3.0112,-358.2633,-3.2213,38.7,92833.0,,,,,,,,,,
4.13,,,,,,,,,298.708,8.719,-0.308,-4.879,-0.24,617.66,24.954,,,
4.135,0.1763,-1.4736,0.0146,10.6443,-358.6835,-4.6919,38.7,92820.0,,,,,,,,,,
4.14,,,,,,,,,298.905,8.563,-0.311,-5.15,-0.231,618.91,23.399,,,
4.145,0.0405,-1.4365,0.0298,15.6863,-359.1036,-4.2717,38.7,92789.0,,,,,,,,,,
4.15,,,,,,,,,299.088,8.397,-0.308,-5.416,-0.22,620.97,22.273,,,
4.155,-0.0371,-1.3901,0.0239,6.3725,-354.0616,-4.902,38.7,92759.0,,,,,,,,,,
4.16,,,,,,,,,299.264,8.224,-0.301,-5.677,-0.207,621.86,22.111,,,
4.165,0.0215,-1.3647,-0.0264,10.1541,-360.3641,-6.7227,38.7,92746.0,,,,,,,,,,
4.17,,,,,,,,,299.437,8.044,-0.3,-5.928,-0.198,626.41,21.405,39.38927459716797,-8.288702011108398,7.0
4.175,0.0654,-1.2817,-0.126,3.7815,-349.0196,-6.9328,38.7,92654.0,,,,,,,,,,
4.18,,,,,,,,,299.595,7.854,-0.295,-6.179,-0.188,628.74,20.069,,,
4.185,-0.0063,-1.2285,-0.166,2.8011,-344.2577,-6.2325,38.7,92665.0,,,,,,,,,,
4.19,,,,,,,,,299.737,7.662,-0.294,-6.415,-0.182,629.9,18.99,,,
4.195,-0.1797,-1.1904,-0.1768,-3.5014,-342.577,-4.4818,38.7,92645.0,,,,,,,,,,
4.2,,,,,,,,,299.872,7.466,-0.293,-6.643,-0.175,632.67,18.265,,,
4.205,-0.0156,-1.1587,-0.0239,-2.8711,-344.3277,-5.8123,38.7,92613.0,,,,,,,,,,
4.21,,,,,,,,,299.996,7.264,-0.298,-6.863,-0.172,635.35,17.358,,,
4.215,-0.0708,-1.0957,0.1074,4.2717,-342.7871,-3.6415,38.7,92532.0,,,,,,,,,,
4.22,,,,,,,,,300.111,7.054,-0.301,-7.079,-0.168,636.51,16.862,,,
4.225,0.0464,-0.9902,0.0908,-1.1204,-339.3557,-3.1513,38.7,92510.0,,,,,,,,,,
4.23,,,,,,,,,300.222,6.839,-0.301,-7.287,-0.159,643.76,15.24,,,
4.235,0.0078,-0.9434,0.105,1.3305,-345.098,-1.4706,38.7,92495.0,,,,,,,,,,
4.24,,,,,,,,,300.318,6.62,-0.303,-7.486,-0.152,644.74,14.2,,,
4.245,0.0337,-0.8955,0.0903,-1.8207,-346.0084,-2.0308,38.7,92475.0,,,,,,,,,,
4.25,,,,,,,,,300.399,6.391,-0.306,-7.683,-0.143,645.55,13.455,,,
4.255,0.1138,-0.834,0.0635,1.6807,-357.2829,-4.3417,38.7,92407.0,,,,,,,,,,
4.26,,,,,,,,,300.474,6.156,-0.309,-7.872,-0.136,648.41,12.835,,,
4.265,0.1431,-0.7749,0.084,7.6331,-358.1232,-4.7619,38.7,92387.0,,,,,,,,,,
4.27,,,,,,,,,300.55,5.908,-0.309,-8.061,-0.128,655.67,11.604,,,
4.275,0.1826,-0.7446,0.0903,5.3922,-358.3333,-7.1429,38.7,92364.0,,,,,,,,,,
4.28,,,,,,,,,300.603,5.653,-0.305,-8.241,-0.115,657.64,9.543,,,
4.285,0.1191,-0.6997,0.1572,8.4734,-360.2241,-7.493,38.7,92329.0,,,,,,,,,,
4.29,,,,,,,,,300.642,5.393,-0.301,-8.415,-0.105,658.98,8.627,,,
4.295,0.0703,-0.6543,0.1182,5.6022,-365.4062,-7.9132,38.7,92300.0,,,,,,,,,,
4.3,,,,,,,,,300.668,5.125,-0.294,-8.58,-0.093,660.77,7.691,,,
4.305,0.0054,-0.6001,0.125,8.6134,-362.1148,-6.5826,38.7,92231.0,,,,,,,,,,
4.31,,,,,,,,,300.692,4.849,-0.288,-8.74,-0.083,666.87,6.489,,,
4.315,-0.0767,-0.5239,0.0967,7.9132,-364.2857,-5.2521,38.7,92249.0,,,,,,,,,,
4.32,,,,,,,,,300.701,4.571,-0.281,-8.889,-0.07,668.67,5.334,,,
4.325,-0.0703,-0.4971,0.0952,0.1401,-363.0252,-6.7927,38.7,92143.0,,,,,,,,,,
4.33,,,,,,,,,300.702,4.286,-0.276,-9.03,-0.057,670.73,4.743,,,
4.335,-0.0371,-0.4116,0.0845,1.6807,-365.1261,-7.9132,38.7,92149.0,,,,,,,,,,
4.34,,,,,,,,,300.694,3.998,-0.272,-9.161,-0.051,673.87,3.865,,,
4.345,-0.0483,-0.3901,0.0508,9.5238,-364.0756,-6.3725,38.7,92138.0,,,,,,,,,,
4.35,,,,,,,,,300.677,3.704,-0.266,-9.284,-0.043,676.47,2.977,,,
4.355,-0.0337,-0.3369,0.0308,6.0924,-364.5658,-7.0728,38.7,92088.0,,,,,,,,,,
4.36,,,,,,,,,300.654,3.407,-0.259,-9.397,-0.029,681.05,1.918,,,
4.365,-0.0962,-0.2754,0.0171,4.7619,-363.5154,-5.8123,38.7,92071.0,,,,,,,,,,
4.37,,,,,,,,,300.612,3.106,-0.252,-9.501,-0.018,682.67,0.429,39.389183044433594,-8.288668632507324,4.0
4.375,-0.1294,-0.2231,0.019,11.6246,-360.014,-3.7115,38.7,92044.0,,,,,,,,,,
4.38,,,,,,,,,300.579,2.803,-0.245,-9.595,-0.008,690.04,-0.095,,,
4.385,-0.0913,-0.1709,0.0103,12.605,-361.8347,-3.0812,38.7,92069.0,,,,,,,,,,
4.39,,,,,,,,,300.522,2.5,-0.239,-9.679,0.008,690.58,-1.765,,,
4.395,-0.123,-0.1143,-0.0249,3.7115,-359.0336,-2.6611,38.7,92021.0,,,,,,,,,,
4.4,,,,,,,,,300.453,2.194,-0.233,-9.753,0.026,691.02,-2.185,,,
4.405,-0.1792,-0.0513,-0.0317,1.7507,-350.9104,0.0,38.7,91972.0,,,,,,,,,,
4.41,,,,,,,,,300.379,1.887,-0.229,-9.817,0.036,695.52,-3.225,,,
4.415,-0.0464,-0.0225,-0.0195,-2.3109,-348.7395,0.2801,38.7,91957.0,,,,,,,,,,
4.42,,,,,,,,,300.288,1.586,-0.227,-9.87,0.044,697.05,-4.428,,,
4.425,-0.0317,0.0366,-0.0479,5.5322,-351.3305,0.4202,38.7,91888.0,,,,,,,,,,
4.43,,,,,,,,,300.179,1.284,-0.226,-9.914,0.049,697.23,-5.449,,,
4.435,0.1606,0.0977,-0.1064,8.1232,-348.4594,-2.1709,38.7,91837.0,,,,,,,,,,
4.44,,,,,,,,,300.057,0.98,-0.223,-9.949,0.061,699.48,-6.47,,,
4.445,0.1128,0.0659,-0.062,2.2409,-342.0868,-3.6415,38.7,91819.0,,,,,,,,,,
4.45,,,,,,,,,299.922,0.677,-0.219,-9.974,0.075,701.55,-7.577,,,
4.455,0.2222,0.105,-0.1621,5.1821,-347.479,-7.7731,38.7,91777.0,,,,,,,,,,
4.46,,,,,,,,,299.78,0.379,-0.213,-9.99,0.083,705.96,-8.808,,,
4.465,0.1221,0.1323,-0.04,3.9916,-342.7871,-3.7115,38.7,91775.0,,,,,,,,,,
4.47,,,,,,,,,299.627,0.076,-0.203,-9.997,0.094,707.31,-9.371,,,
4.475,0.0054,0.123,0.1172,5.4622,-343.4174,-2.6611,38.7,91733.0,,,,,,,,,,
4.48,,,,,,,,,299.473,-0.222,-0.196,-9.995,0.104,713.52,-10.526,,,
4.485,-0.0435,0.168,0.168,2.8711,-341.3165,-3.5014,38.7,91688.0,,,,,,,,,,
4.49,,,,,,,,,299.319,-0.522,-0.19,-9.983,0.115,718.12,-11.098,,,
4.495,-0.0542,0.1978,0.1807,9.5938,-342.3669,-2.2409,38.7,91675.0,,,,,,,,,,
4.5,,,,,,,,,299.154,-0.819,-0.184,-9.963,0.123,719.74,-11.719,,,
4.505,-0.0283,0.2036,0.1582,2.381,-346.4286,-1.6106,38.7,91637.0,,,,,,,,,,
4.51,,,,,,,,,298.991,-1.116,-0.178,-9.934,0.137,723.53,-11.862,,,
4.515,0.085,0.2441,-0.0386,5.112,-344.6078,-1.9608,38.7,91618.0,,,,,,,,,,
4.52,,,,,,,,,298.816,-1.416,-0.172,-9.896,0.145,723.71,-12.215,,,
4.525,0.0737,0.2949,-0.145,-2.2409,-343.0672,-2.1008,38.7,91590.0,,,,,,,,,,
4.53,,,,,,,,,298.643,-1.713,-0.167,-9.849,0.155,727.5,-12.396,,,
4.535,0.0225,0.0166,-0.1001,-3.3613,-343.3473,0.2101,38.7,91604.0,,,,,,,,,,
4.54,,,,,,,,,298.465,-2.007,-0.159,-9.793,0.159,731.56,-13.093,,,
4.545,0.0083,-0.0732,0.0103,-2.8711,-349.1597,-2.2409,38.7,91534.0,,,,,,,,,,
4.55,,,,,,,,,298.283,-2.3,-0.154,-9.729,0.161,732.73,-13.093,,,
4.555,0.3374,0.4214,0.1328,11.2045,-348.5294,-12.7451,38.7,91568.0,,,,,,,,,,
4.56,,,,,,,,,298.103,-2.596,-0.146,-9.654,0.164,736.16,-13.093,,,
4.565,0.2285,0.4155,-0.1201,3.7115,-341.8768,-5.5322,38.7,91652.0,,,,,,,,,,
4.57,,,,,,,,,297.913,-2.888,-0.133,-9.571,0.181,737.88,-13.675,39.389068603515625,-8.288651466369629,6.0
4.575,0.0723,0.5161,-0.0225,3.7115,-338.7255,-5.6723,38.8,91598.0,,,,,,,,,,
4.58,,,,,,,,,297.713,-3.172,-0.123,-9.48,0.189,737.88,-13.789,,,
4.585,-0.1948,0.6099,-0.042,-0.7703,-334.1737,3.2213,38.7,91546.0,,,,,,,,,,
4.59,,,,,,,,,297.5,-3.451,-0.114,-9.382,0.198,739.14,-14.581,,,
4.595,-0.1177,0.5952,-0.0088,-0.4902,-334.8039,-4.1317,38.7,91592.0,,,,,,,,,,
4.6,,,,,,,,,297.27,-3.723,-0.11,-9.278,0.2,739.68,-15.574,,,
4.605,-0.1484,0.6772,0.0146,4.2017,-335.5042,-3.9216,38.7,91653.0,,,,,,,,,,
4.61,,,,,,,,,297.01,-3.993,-0.1,-9.165,0.204,740.22,-17.931,,,
4.615,-0.0859,0.6704,0.1089,0.8403,-338.7955,-2.521,38.7,91605.0,,,,,,,,,,
4.62,,,,,,,,,296.74,-4.259,-0.092,-9.044,0.212,740.22,-18.045,,,
4.625,-0.0635,0.7456,0.1436,4.5518,-343.6975,-1.9608,38.7,91596.0,,,,,,,,,,
4.63,,,,,,,,,296.442,-4.525,-0.084,-8.914,0.217,739.68,-19.897,,,
4.635,-0.0146,0.7871,0.1602,13.7255,-343.9076,-4.902,38.7,91594.0,,,,,,,,,,
4.64,,,,,,,,,296.12,-4.79,-0.077,-8.774,0.224,739.86,-21.443,,,
4.645,0.0254,0.8193,0.0127,11.2045,-339.986,-1.0504,38.7,91635.0,,,,,,,,,,
4.65,,,,,,,,,295.787,-5.051,-0.072,-8.626,0.239,739.86,-21.729,,,
4.655,-0.0098,0.8203,0.0098,12.9552,-336.4846,0.6303,38.7,91694.0,,,,,,,,,,
4.66,,,,,,,,,295.433,-5.305,-0.069,-8.472,0.25,739.68,-22.912,,,
4.665,-0.0103,0.8179,-0.0562,3.9216,-330.3221,2.7311,38.7,91740.0,,,,,,,,,,
4.67,,,,,,,,,295.07,-5.551,-0.068,-8.312,0.262,739.68,-23.046,,,
4.675,0.0342,0.5454,-0.1714,12.605,-333.0532,-0.07,38.7,91741.0,,,,,,,,,,
4.68,,,,,,,,,294.683,-5.789,-0.064,-8.149,0.265,739.05,-24.382,,,
4.685,0.1245,0.5459,-0.2173,9.7339,-326.2605,-2.451,38.7,91804.0,,,,,,,,,,
4.69,,,,,,,,,294.28,-6.023,-0.063,-7.976,0.276,736.34,-24.382,,,
4.695,0.1484,0.874,-0.147,2.7311,-321.4986,-4.4118,38.7,91784.0,,,,,,,,,,
4.7,,,,,,,,,293.864,-6.248,-0.058,-7.801,0.286,734.72,-24.382,,,
4.705,0.1274,0.9097,-0.0659,-3.2913,-320.9384,-6.3025,38.8,91770.0,,,,,,,,,,
4.71,,,,,,,,,293.421,-6.464,-0.048,-7.623,0.293,731.02,-25.193,,,
4.715,0.0625,0.9883,-0.0532,0.6303,-320.7983,-5.4622,38.7,91726.0,,,,,,,,,,
4.72,,,,,,,,,292.951,-6.675,-0.034,-7.439,0.296,726.87,-25.794,,,
4.725,-0.0244,1.0259,-0.0181,2.451,-317.0168,-3.1513,38.7,91575.0,,,,,,,,,,
4.73,,,,,,,,,292.474,-6.881,-0.022,-7.249,0.3,726.87,-25.823,,,
4.735,-0.0229,1.0107,-0.0078,2.8011,-323.4594,-3.1513,38.7,91531.0,,,,,,,,,,
4.74,,,,,,,,,291.99,-7.079,-0.013,-7.056,0.305,726.87,-25.842,,,
4.745,-0.0342,1.0181,-0.0078,0.4902,-317.2969,-2.591,38.7,91388.0,,,,,,,,,,
4.75,,,,,,,,,291.487,-7.275,-0.004,-6.853,0.309,726.87,-26.892,,,
4.755,0.0029,1.0435,0.0308,0.0,-315.2661,-3.4314,38.7,91314.0,,,,,,,,,,
4.76,,,,,,,,,290.971,-7.462,0.005,-6.649,0.311,726.87,-27.588,,,
4.765,0.0791,1.0459,0.0264,1.3305,-317.9272,-5.2521,38.8,91282.0,,,,,,,,,,
4.77,,,,,,,,,290.436,-7.642,0.015,-6.441,0.314,728.13,-29.125,39.388946533203125,-8.288650512695312,5.0
4.775,0.0078,1.001,0.0645,5.042,-320.7983,-3.3613,38.7,91176.0,,,,,,,,,,
4.78,,,,,,,,,289.931,-7.818,0.026,-6.226,0.318,741.76,-29.564,,,
4.785,0.041,1.0176,0.0566,7.1429,-319.2577,-2.8011,38.7,91147.0,,,,,,,,,,
4.79,,,,,,,,,289.432,-7.989,0.034,-6.004,0.322,745.74,-29.564,,,
4.795,0.0317,1.0337,0.0732,9.6639,-324.93,-2.451,38.8,91076.0,,,,,,,,,,
4.8,,,,,,,,,288.964,-8.153,0.039,-5.779,0.327,758.67,-29.697,,,
4.805,0.0273,1.0298,0.0732,10.084,-327.521,-1.6106,38.7,90981.0,,,,,,,,,,
4.81,,,,,,,,,288.509,-8.314,0.043,-5.545,0.333,765.37,-29.707,,,
4.815,0.0239,1.0361,0.0908,1.8908,-325.8403,-2.381,38.7,90940.0,,,,,,,,,,
4.82,,,,,,,,,288.053,-8.469,0.046,-5.305,0.338,768.27,-29.859,,,
4.825,0.0093,0.9941,0.041,0.7003,-328.7115,-2.1008,38.7,90866.0,,,,,,,,,,
4.83,,,,,,,,,287.619,-8.617,0.055,-5.062,0.34,777.87,-29.936,,,
4.835,0.0479,0.9883,0.0171,0.0,-328.8515,-2.3109,38.8,90755.0,,,,,,,,,,
4.84,,,,,,,,,287.185,-8.758,0.065,-4.812,0.34,780.5,-29.936,,,
4.845,0.0464,0.9844,-0.0186,5.5322,-326.4006,-1.4006,38.7,90700.0,,,,,,,,,,
4.85,,,,,,,,,286.764,-8.893,0.076,-4.559,0.34,786.94,-29.936,,,
4.855,0.0405,0.9844,0.0098,6.7927,-328.0112,-1.8908,38.7,90681.0,,,,,,,,,,
4.86,,,,,,,,,286.363,-9.019,0.082,-4.303,0.342,795.57,-29.697,,,
4.865,-0.0054,0.9844,0.0312,7.493,-328.0812,-1.5406,38.7,90601.0,,,,,,,,,,
4.87,,,,,,,,,285.969,-9.139,0.087,-4.043,0.344,799.29,-29.373,,,
4.875,0.0547,1.0073,0.0391,8.0532,-328.6415,-3.0112,38.8,90539.0,,,,,,,,,,
4.88,,,,,,,,,285.589,-9.251,0.092,-3.779,0.345,806.02,-29.239,,,
4.885,0.04,0.9995,-0.1724,1.7507,-320.7283,-2.3109,38.8,90485.0,,,,,,,,,,
4.89,,,,,,,,,285.232,-9.355,0.096,-3.512,0.348,816.11,-29.239,,,
4.895,0.0464,1.0112,-0.1714,5.5322,-318.2073,-3.2213,38.8,90451.0,,,,,,,,,,
4.9,,,,,,,,,284.882,-9.45,0.105,-3.249,0.348,821.12,-29.239,,,
4.905,0.0151,0.9902,-0.0654,2.8711,-321.0784,-4.3417,38.8,90379.0,,,,,,,,,,
4.91,,,,,,,,,284.529,-9.537,0.111,-2.985,0.349,822.85,-29.239,,,
4.915,-0.0107,1.0151,-0.0005,5.6022,-320.5882,-4.6218,38.7,90355.0,,,,,,,,,,
4.92,,,,,,,,,284.191,-9.616,0.119,-2.716,0.351,830.14,-29.163,,,
4.925,-0.0054,0.9902,0.1313,-0.2101,-318.6275,-3.6415,38.8,90303.0,,,,,,,,,,
4.93,,,,,,,,,283.862,-9.689,0.125,-2.445,0.353,835.79,-29.163,,,
4.935,0.0093,0.998,0.0771,2.521,-317.0168,-3.9216,38.8,90252.0,,,,,,,,,,
4.94,,,,,,,,,283.54,-9.753,0.136,-2.175,0.353,840.71,-29.163,,,
4.945,0.0137,1.0117,0.022,8.8235,-318.0672,-3.7815,38.8,90250.0,,,,,,,,,,
4.95,,,,,,,,,283.217,-9.809,0.144,-1.904,0.353,843.81,-29.315,,,
4.955,-0.0063,0.9912,0.0498,2.1008,-320.5882,-3.3613,38.8,90174.0,,,,,,,,,,
4.96,,,,,,,,,282.905,-9.858,0.147,-1.63,0.354,850.39,-29.344,,,
4.965,-0.0522,1.0186,-0.0083,5.9524,-315.9664,-2.381,38.7,90168.0,,,,,,,,,,
4.97,,,,,,,,,282.592,-9.9,0.155,-1.354,0.353,852.58,-29.344,39.388946533203125,-8.288650512695312,3.0
4.975,-0.0073,1.0312,0.0122,7.9832,-316.6667,-2.521,38.8,90122.0,,,,,,,,,,
4.98,,,,,,,,,282.285,-9.933,0.16,-1.08,0.352,857.33,-29.344,,,
4.985,-0.0273,1.0088,0.0342,6.8627,-321.1485,-3.0112,38.8,90038.0,,,,,,,,,,
4.99,,,,,,,,,281.981,-9.96,0.163,-0.804,0.351,861.99,-29.573,,,
4.995,-0.0098,0.999,0.0444,10.6443,-320.7283,-1.1204,38.8,90067.0,,,,,,,,,,
5.0,,,,,,,,,281.67,-9.978,0.167,-0.525,0.349,862.17,-29.525,,,
5.005,0.0596,1.0127,0.084,8.4034,-320.3782,-2.451,38.7,90002.0,,,,,,,,,,
5.01,,,,,,,,,281.372,-9.989,0.167,-0.245,0.346,869.12,-29.525,,,
5.015,0.1021,1.0063,-0.0059,5.8123,-315.8263,-3.7115,38.8,89978.0,,,,,,,,,,
5.02,,,,,,,,,281.066,-9.992,0.169,0.034,0.344,869.67,-29.525,,,
5.025,0.1294,1.002,-0.0654,-0.7703,-315.3361,-3.7115,38.8,89927.0,,,,,,,,,,
5.03,,,,,,,,,280.765,-9.987,0.174,0.31,0.343,873.88,-29.525,,,
5.035,0.0669,1.0083,-0.0605,2.1008,-317.9272,-4.2017,38.8,89929.0,,,,,,,,,,
5.04,,,,,,,,,280.471,-9.975,0.183,0.585,0.342,878.91,-29.525,,,
5.045,-0.0034,1.0107,-0.0151,3.0812,-320.4482,-4.4818,38.8,89888.0,,,,,,,,,,
5.05,,,,,,,,,280.177,-9.955,0.191,0.862,0.34,881.57,-29.516,,,
5.055,0.0156,1.0127,0.0181,0.5602,-318.1373,-5.3221,38.8,89863.0,,,,,,,,,,
5.06,,,,,,,,,279.883,-9.926,0.197,1.14,0.339,884.87,-29.525,,,
5.065,0.1045,1.0234,-0.0283,1.4706,-315.6162,-7.0728,38.8,89811.0,,,,,,,,,,
5.07,,,,,,,,,279.588,-9.891,0.205,1.416,0.338,887.07,-29.525,,,
5.075,0.0625,1.0166,-0.0527,5.4622,-314.2157,-6.3025,38.8,89777.0,,,,,,,,,,
5.08,,,,,,,,,279.299,-9.848,0.212,1.688,0.338,891.56,-29.525,,,
5.085,-0.0093,1.0234,-0.0015,0.7703,-315.2661,-5.3922,38.8,89797.0,,,,,,,,,,
5.09,,,,,,,,,279.0,-9.798,0.215,1.958,0.337,891.74,-29.564,,,
5.095,-0.1064,1.019,0.0586,-1.6807,-312.465,-5.4622,38.8,89785.0,,,,,,,,,,
5.1,,,,,,,,,278.704,-9.74,0.223,2.227,0.336,895.32,-29.602,,,
5.105,-0.1128,1.0166,0.0034,6.3725,-310.7843,-5.3922,38.8,89688.0,,,,,,,,,,
5.11,,,,,,,,,278.407,-9.675,0.232,2.492,0.335,897.61,-29.602,,,
5.115,-0.0205,1.022,0.0,5.042,-313.3053,-5.6022,38.8,89697.0,,,,,,,,,,
5.12,,,,,,,,,278.114,-9.604,0.234,2.754,0.332,902.38,-29.678,,,
5.125,-0.0234,1.0317,0.0225,-3.0112,-312.1849,-4.902,38.8,89671.0,,,,,,,,,,
5.13,,,,,,,,,277.817,-9.525,0.237,3.016,0.329,903.67,-29.678,,,
5.135,-0.0464,1.0249,0.0269,9.3838,-307.9132,-3.2913,38.8,89667.0,,,,,,,,,,
5.14,,,,,,,,,277.515,-9.439,0.247,3.274,0.328,904.77,-29.726,,,
5.145,-0.0229,1.0254,0.0391,0.8403,-308.2633,-2.6611,38.8,89657.0,,,,,,,,,,
5.15,,,,,,,,,277.206,-9.348,0.247,3.527,0.321,905.5,-29.783,,,
5.155,-0.0718,1.0278,0.0986,9.0336,-309.944,-3.0112,38.8,89621.0,,,,,,,,,,
5.16,,,,,,,,,276.91,-9.249,0.254,3.778,0.317,912.85,-29.812,,,
5.165,-0.0547,1.0459,0.103,3.2913,-311.9048,-2.2409,38.8,89627.0,,,,,,,,,,
5.17,,,,,,,,,276.609,-9.144,0.254,4.027,0.31,913.68,-29.812,,,
5.175,-0.0522,1.0522,0.1113,2.3109,-309.3838,-1.6807,38.8,89611.0,,,,,,,,,,
5.18,,,,,,,,,276.303,-9.031,0.258,4.275,0.303,915.24,-29.84,,,
5.185,-0.0137,1.042,0.1123,1.6106,-310.2241,-1.3305,38.8,89646.0,,,,,,,,,,
5.19,,,,,,,,,275.991,-8.912,0.264,4.517,0.297,915.61,-29.85,,,
5.195,0.0254,1.061,-0.0088,6.1625,-311.9048,-1.8908,38.8,89595.0,,,,,,,,,,
5.2,,,,,,,,,275.672,-8.786,0.269,4.757,0.29,916.53,-29.898,,,
5.205,0.0356,1.0752,-0.0474,9.5938,-309.0336,-1.7507,38.8,89636.0,,,,,,,,,,
5.21,,,,,,,,,275.348,-8.654,0.271,4.995,0.282,917.54,-29.974,,,
5.215,-0.0264,1.0659,0.0571,11.4846,-314.0056,-2.8011,38.8,89621.0,,,,,,,,,,
5.22,,,,,,,,,275.016,-8.516,0.271,5.227,0.272,918.46,-30.174,,,
5.225,0.0464,1.0811,-0.0132,8.7535,-312.395,-3.0812,38.8,89674.0,,,,,,,,,,
5.23,,,,,,,,,274.678,-8.37,0.268,5.459,0.261,919.28,-30.251,,,
5.235,0.0391,1.0942,-0.061,9.2437,-309.3838,-2.3109,38.8,89676.0,,,,,,,,,,
5.24,,,,,,,,,274.33,-8.218,0.267,5.685,0.252,919.28,-30.375,,,
5.245,0.0093,1.1162,-0.1255,3.0812,-311.5546,-2.521,38.8,89624.0,,,,,,,,,,
5.25,,,,,,,,,273.973,-8.061,0.265,5.905,0.242,919.28,-30.547,,,
5.255,0.0142,1.0938,-0.1069,4.1317,-309.5938,-3.5714,38.7,89628.0,,,,,,,,,,
5.26,,,,,,,,,273.608,-7.898,0.268,6.123,0.235,919.28,-30.642,,,
5.265,0.0059,1.1074,-0.1499,0.8403,-303.1513,-3.5014,38.8,89662.0,,,,,,,,,,
5.27,,,,,,,,,273.232,-7.729,0.269,6.334,0.228,919.19,-30.823,,,
5.275,0.0557,1.1196,-0.0684,3.8515,-305.5322,-5.1821,38.8,89694.0,,,,,,,,,,
5.28,,,,,,,,,272.845,-7.559,0.272,6.537,0.223,918.46,-30.938,,,
5.285,0.0029,1.1323,-0.0566,-0.4902,-300.4902,-4.902,38.8,89655.0,,,,,,,,,,
5.29,,,,,,,,,272.449,-7.382,0.272,6.736,0.217,918.46,-31.186,,,
5.295,-0.0513,1.1279,-0.0151,0.9104,-300.07,-4.4818,38.8,89710.0,,,,,,,,,,
5.3,,,,,,,,,272.039,-7.202,0.275,6.928,0.214,916.71,-31.195,,,
5.305,-0.02,1.1475,-0.0117,1.6106,-294.2577,-4.7619,38.8,89660.0,,,,,,,,,,
5.31,,,,,,,,,271.618,-7.018,0.277,7.114,0.209,916.07,-31.453,,,
5.315,-0.0269,1.1455,-0.0767,-2.0308,-296.0784,-3.9916,38.8,89669.0,,,,,,,,,,
5.32,,,,,,,,,271.187,-6.833,0.278,7.292,0.204,916.07,-31.625,,,
5.325,0.0142,1.1646,-0.0171,0.2801,-299.7199,-4.4818,38.8,89703.0,,,,,,,,,,
5.33,,,,,,,,,270.749,-6.642,0.281,7.467,0.2,916.07,-31.692,,,
5.335,0.002,1.1733,0.0337,-0.5602,-296.1485,-3.5014,38.8,89677.0,,,,,,,,,,
5.34,,,,,,,,,270.302,-6.444,0.283,7.638,0.195,916.07,-31.854,,,
5.345,-0.0293,1.1694,0.1069,-1.1905,-298.6695,-3.2213,38.8,89670.0,,,,,,,,,,
5.35,,,,,,,,,269.845,-6.244,0.286,7.802,0.19,915.42,-31.94,,,
5.355,0.0098,1.1777,0.1123,0.4202,-299.3697,-2.8011,38.8,89620.0,,,,,,,,,,
5.36,,,,,,,,,269.379,-6.039,0.289,7.963,0.185,915.33,-32.197,,,
5.365,0.0581,1.2109,0.1133,-2.1709,-297.409,-3.6415,38.8,89688.0,,,,,,,,,,
5.37,,,,,,,,,268.905,-5.828,0.291,8.118,0.179,915.33,-32.236,39.38871383666992,-8.288551330566406,0.0
5.375,0.0396,1.2036,0.0557,0.07,-295.7983,-2.9412,38.7,89664.0,,,,,,,,,,
5.38,,,,,,,,,268.421,-5.616,0.293,8.267,0.175,915.33,-32.57,,,
5.385,-0.0298,1.2114,0.1338,-3.0112,-298.8095,-1.8908,38.8,89700.0,,,,,,,,,,
5.39,,,,,,,,,267.929,-5.4,0.295,8.409,0.169,915.33,-32.665,,,
5.395,0.0073,1.2368,0.1162,4.972,-301.1905,-2.381,38.8,89664.0,,,,,,,,,,
5.4,,,,,,,,,267.43,-5.179,0.299,8.547,0.164,915.33,-32.741,,,
5.405,0.0225,1.2295,0.1245,2.9412,-305.2521,-3.0112,38.8,89699.0,,,,,,,,,,
5.41,,,,,,,,,266.923,-4.952,0.299,8.68,0.153,915.33,-32.827,,,
5.415,0.0249,1.2319,0.1353,3.9916,-311.8347,-3.1513,38.8,89627.0,,,,,,,,,,
5.42,,,,,,,,,266.403,-4.719,0.299,8.809,0.144,914.69,-33.333,,,
5.425,0.0552,1.2329,0.1455,13.0952,-311.6246,-3.0812,38.8,89711.0,,,,,,,,,,
5.43,,,,,,,,,265.877,-4.477,0.299,8.935,0.134,915.33,-33.476,,,
5.435,0.1304,1.2495,0.1084,3.7115,-315.4062,-6.1625,38.8,89728.0,,,,,,,,,,
5.44,,,,,,,,,265.344,-4.233,0.294,9.054,0.117,915.33,-33.486,,,
5.445,0.1235,1.2554,0.1304,3.5714,-319.6078,-6.1625,38.8,89680.0,,,,,,,,,,
5.45,,,,,,,,,264.797,-3.982,0.291,9.167,0.108,913.68,-33.839,,,
5.455,0.0669,1.2676,0.167,10.5742,-315.4762,-6.7227,38.7,89698.0,,,,,,,,,,
5.46,,,,,,,,,264.243,-3.725,0.287,9.275,0.099,913.68,-33.886,,,
5.465,0.0083,1.25,0.0703,10.6443,-317.1569,-6.6527,38.8,89700.0,,,,,,,,,,
5.47,,,,,,,,,263.68,-3.468,0.28,9.374,0.085,912.76,-33.906,,,
5.475,-0.0146,1.2544,0.0537,13.8655,-318.8375,-7.9832,38.8,89727.0,,,,,,,,,,
5.48,,,,,,,,,263.11,-3.207,0.274,9.467,0.071,912.67,-33.982,,,
5.485,-0.0679,1.3008,-0.0229,8.8235,-318.6275,-7.0028,38.8,89728.0,,,,,,,,,,
5.49,,,,,,,,,262.531,-2.943,0.265,9.553,0.054,912.67,-34.23,,,
5.495,-0.0713,1.2817,-0.0957,4.6919,-309.5238,-6.2325,38.8,89807.0,,,,,,,,,,
5.5,,,,,,,,,261.947,-2.676,0.258,9.631,0.041,912.58,-34.24,,,
5.505,-0.0947,1.3008,-0.1069,0.2801,-305.112,-5.6022,38.8,89684.0,,,,,,,,,,
5.51,,,,,,,,,261.352,-2.415,0.252,9.7,0.031,911.57,-34.325,,,
5.515,-0.1357,1.2915,-0.0312,15.9664,-309.4538,-6.4426,38.8,89613.0,,,,,,,,,,
5.52,,,,,,,,,260.752,-2.156,0.247,9.761,0.025,911.57,-34.345,,,
5.525,-0.0884,1.2798,0.041,14.986,-310.1541,-6.4426,38.8,89560.0,,,,,,,,,,
5.53,,,,,,,,,260.147,-1.891,0.239,9.816,0.006,912.58,-34.583,,,
5.535,-0.0308,1.2739,0.0513,7.1429,-307.2829,-6.1625,38.8,89511.0,,,,,,,,,,
5.54,,,,,,,,,259.534,-1.625,0.231,9.864,-0.011,912.76,-34.822,,,
5.545,-0.0435,1.2383,0.0449,7.3529,-299.2297,-4.972,38.8,89431.0,,,,,,,,,,
5.55,,,,,,,,,258.916,-1.36,0.224,9.904,-0.023,912.76,-34.822,,,
5.555,-0.1089,1.2129,-0.0542,5.7423,-294.2577,-3.1513,38.8,89414.0,,,,,,,,,,
5.56,,,,,,,,,258.296,-1.101,0.218,9.936,-0.035,914.04,-34.822,,,
5.565,-0.0967,1.2324,0.0215,2.0308,-290.056,-3.2913,38.8,89320.0,,,,,,,,,,
5.57,,,,,,,,,257.69,-0.845,0.213,9.961,-0.045,920.57,-34.822,,,
5.575,-0.043,1.1953,0.0015,4.2017,-286.9748,-2.8711,38.8,89247.0,,,,,,,,,,
5.58,,,,,,,,,257.093,-0.593,0.208,9.98,-0.052,925.45,-34.822,,,
5.585,-0.0229,1.1987,0.0742,2.9412,-290.2661,-2.2409,38.8,89164.0,,,,,,,,,,
5.59,,,,,,,,,256.505,-0.343,0.204,9.991,-0.061,929.95,-34.707,,,
5.595,-0.0391,1.1567,0.0605,4.6919,-289.1457,-2.6611,38.8,89108.0,,,,,,,,,,
5.6,,,,,,,,,255.94,-0.089,0.2,9.997,-0.069,937.32,-34.011,,,
5.605,-0.0444,1.1714,0.1221,10.9244,-288.7255,-2.0308,38.8,88960.0,,,,,,,,,,
5.61,,,,,,,,,255.375,0.162,0.195,9.996,-0.078,938.88,-33.896,,,
5.615,-0.0132,1.1543,0.1753,9.8039,-290.6863,-1.7507,38.8,88902.0,,,,,,,,,,
5.62,,,,,,,,,254.834,0.414,0.191,9.989,-0.093,947.55,-33.514,,,
5.625,-0.0479,1.1558,0.1807,12.9552,-290.4062,-1.5406,38.8,88902.0,,,,,,,,,,
5.63,,,,,,,,,254.309,0.667,0.187,9.975,-0.106,954.28,-33.238,,,
5.635,0.0312,1.0942,0.124,15.3361,-290.2661,-1.1905,38.8,88840.0,,,,,,,,,,
5.64,,,,,,,,,253.802,0.92,0.184,9.955,-0.123,961.94,-33.171,,,
5.645,0.2495,1.1211,0.1045,5.4622,-289.7759,-4.6218,38.8,88799.0,,,,,,,,,,
5.65,,,,,,,,,253.309,1.171,0.18,9.928,-0.141,967.11,-32.703,,,
5.655,0.1763,1.0869,0.0024,9.1737,-291.1064,-4.2017,38.8,88734.0,,,,,,,,,,
5.66,,,,,,,,,252.853,1.422,0.173,9.895,-0.151,980.79,-32.417,,,
5.665,0.0322,1.0776,-0.0503,8.7535,-292.0168,-4.972,38.8,88653.0,,,,,,,,,,
5.67,,,,,,,,,252.407,1.673,0.166,9.856,-0.164,986.15,-32.398,,,
5.675,-0.0981,1.0659,-0.04,10.6443,-294.8179,-2.9412,38.8,88622.0,,,,,,,,,,
5.68,,,,,,,,,251.954,1.924,0.159,9.81,-0.177,986.15,-32.369,,,
5.685,-0.0952,1.0361,-0.0312,7.7731,-292.8571,-2.2409,38.8,88614.0,,,,,,,,,,
5.69,,,,,,,,,251.519,2.175,0.153,9.757,-0.191,991.89,-31.72,,,
5.695,-0.0894,1.0391,-0.1382,0.4902,-289.986,-3.9216,38.8,88505.0,,,,,,,,,,
5.7,,,,,,,,,251.094,2.424,0.147,9.698,-0.202,995.69,-31.195,,,
5.705,0.0073,1.0396,-0.1162,7.7731,-292.9972,-6.2325,38.8,88409.0,,,,,,,,,,
5.71,,,,,,,,,250.681,2.669,0.139,9.633,-0.207,1001.71,-31.052,,,
5.715,0.0151,1.0151,-0.1143,2.381,-288.5154,-6.3025,38.8,88377.0,,,,,,,,,,
5.72,,,,,,,,,250.286,2.914,0.13,9.562,-0.219,1009.22,-30.871,,,
5.725,0.0547,1.0151,-0.0386,5.6022,-289.986,-6.5826,38.8,88333.0,,,,,,,,,,
5.73,,,,,,,,,249.894,3.154,0.119,9.485,-0.226,1012.1,-30.642,,,
5.735,-0.0854,1.0112,0.0215,-0.2101,-286.0644,-4.8319,38.8,88260.0,,,,,,,,,,
5.74,,,,,,,,,249.504,3.393,0.109,9.402,-0.235,1012.84,-30.127,,,
5.745,-0.1016,1.0078,0.0562,-3.2213,-283.2633,-5.112,38.8,88222.0,,,,,,,,,,
5.75,,,,,,,,,249.136,3.627,0.099,9.315,-0.24,1022.96,-30.117,,,
5.755,-0.1255,0.9883,0.0669,1.6807,-285.5042,-3.3613,38.8,88150.0,,,,,,,,,,
5.76,,,,,,,,,248.789,3.856,0.088,9.222,-0.241,1031.88,-30.06,,,
5.765,-0.1353,0.9849,0.0703,0.5602,-282.9832,-2.0308,38.8,88110.0,,,,,,,,,,
5.77,,,,,,,,,248.448,4.085,0.079,9.123,-0.246,1034.85,-29.649,,,
5.775,-0.1382,0.9795,0.0444,-0.1401,-278.3613,-1.5406,38.8,88003.0,,,,,,,,,,
5.78,,,,,,,,,248.111,4.309,0.071,9.02,-0.25,1038.94,-29.649,,,
5.785,-0.1626,0.9556,0.0586,-2.591,-276.7507,0.4202,38.7,87976.0,,,,,,,,,,
5.79,,,,,,,,,247.789,4.527,0.064,8.912,-0.252,1045.74,-29.573,,,
5.795,-0.1807,0.9453,0.0425,0.4902,-274.4398,2.1709,38.8,87936.0,,,,,,,,,,
5.8,,,,,,,,,247.47,4.741,0.057,8.8,-0.252,1049.27,-29.506,,,
5.805,-0.1274,0.9629,0.0,3.2913,-274.0896,3.2913,38.8,87854.0,,,,,,,,,,
5.81,,,,,,,,,247.168,4.951,0.052,8.684,-0.253,1055.98,-29.125,,,
5.815,-0.0532,0.936,0.0332,8.9636,-276.0504,2.1008,38.8,87810.0,,,,,,,,,,
5.82,,,,,,,,,246.87,5.157,0.05,8.563,-0.255,1059.71,-29.058,,,
5.825,0.0596,0.9448,0.0259,5.4622,-277.451,-1.3305,38.8,87719.0,,,,,,,,,,
5.83,,,,,,,,,246.596,5.362,0.049,8.436,-0.263,1069.68,-28.953,,,
5.835,0.063,0.9058,-0.0166,9.1036,-279.1317,-0.1401,38.8,87739.0,,,,,,,,,,
5.84,,,,,,,,,246.324,5.565,0.044,8.303,-0.269,1072.21,-28.628,,,
5.845,0.1411,0.9102,-0.063,5.8123,-278.6415,0.2101,38.8,87657.0,,,,,,,,,,
5.85,,,,,,,,,246.058,5.766,0.042,8.165,-0.277,1075.94,-28.485,,,
5.855,0.1074,0.8994,0.0493,6.9328,-281.8627,-0.6303,38.8,87616.0,,,,,,,,,,
5.86,,,,,,,,,245.809,5.963,0.038,8.022,-0.282,1083.6,-28.285,,,
5.865,-0.0728,0.8794,0.0962,4.3417,-282.9832,0.3501,38.8,87564.0,,,,,,,,,,
5.87,,,,,,,,,245.564,6.158,0.034,7.873,-0.288,1087.71,-28.275,39.38871383666992,-8.288551330566406,4.0
5.875,-0.002,0.8579,0.0547,5.4622,-282.7731,0.0,38.8,87534.0,,,,,,,,,,
5.88,,,,,,,,,245.333,6.351,0.029,7.718,-0.292,1094.35,-28.104,,,
5.885,0.1753,0.853,0.0098,5.2521,-283.7535,-2.381,38.8,87481.0,,,,,,,,,,
5.89,,,,,,,,,245.105,6.54,0.025,7.558,-0.297,1096.22,-27.598,,,
5.895,0.2339,0.855,-0.0781,4.6218,-281.2325,-3.6415,38.8,87454.0,,,,,,,,,,
5.9,,,,,,,,,244.887,6.725,0.019,7.394,-0.303,1102.02,-27.512,,,
5.905,0.1406,0.8613,-0.0488,3.2913,-283.1933,-4.4118,38.8,87406.0,,,,,,,,,,
5.91,,,,,,,,,244.674,6.904,0.012,7.226,-0.309,1105.86,-27.388,,,
5.915,0.0552,0.835,0.0259,8.8936,-285.9944,-6.7227,38.8,87391.0,,,,,,,,,,
5.92,,,,,,,,,244.472,7.081,0.003,7.053,-0.314,1110.73,-26.997,,,
5.925,0.002,0.8315,-0.0537,9.5238,-286.9048,-7.493,38.8,87373.0,,,,,,,,,,
5.93,,,,,,,,,244.274,7.255,-0.003,6.874,-0.324,1113.54,-26.644,,,
5.935,-0.019,0.8511,-0.1182,1.1905,-284.944,-7.0728,38.8,87384.0,,,,,,,,,,
5.94,,,,,,,,,244.083,7.424,-0.009,6.69,-0.334,1118.5,-26.577,,,
5.945,-0.0205,0.8706,-0.0664,-0.1401,-285.4342,-7.8431,38.8,87380.0,,,,,,,,,,
5.95,,,,,,,,,243.892,7.588,-0.021,6.503,-0.34,1121.04,-26.519,,,
5.955,-0.0068,0.8647,0.0137,4.2017,-286.4146,-8.4034,38.7,87335.0,,,,,,,,,,
5.96,,,,,,,,,243.707,7.748,-0.034,6.312,-0.345,1125.54,-26.519,,,
5.965,-0.0034,0.8599,0.0454,4.902,-285.9944,-8.4734,38.8,87354.0,,,,,,,,,,
5.97,,,,,,,,,243.518,7.903,-0.045,6.116,-0.352,1126.95,-26.519,,,
5.975,0.0112,0.8901,0.0688,5.2521,-284.3838,-8.7535,38.8,87325.0,,,,,,,,,,
5.98,,,,,,,,,243.323,8.053,-0.055,5.916,-0.36,1127.6,-26.519,,,
5.985,-0.0688,0.8779,0.0688,3.7815,-282.8431,-7.2129,38.7,87351.0,,,,,,,,,,
5.99,,,,,,,,,243.121,8.197,-0.065,5.714,-0.367,1127.98,-26.615,,,
5.995,-0.0781,0.896,0.0806,3.2913,-283.2633,-6.5826,38.8,87366.0,,,,,,,,,,
6.0,,,,,,,,,242.913,8.336,-0.075,5.51,-0.373,1128.64,-26.644,,,
6.005,-0.0908,0.8984,0.0527,1.4706,-282.7731,-6.4426,38.8,87321.0,,,,,,,,,,
6.01,,,,,,,,,242.698,8.469,-0.085,5.302,-0.378,1129.29,-26.71,,,
6.015,-0.0225,0.8999,-0.0068,1.5406,-283.2633,-6.5826,38.7,87322.0,,,,,,,,,,
6.02,,,,,,,,,242.478,8.597,-0.096,5.091,-0.381,1130.42,-26.825,,,
6.025,0.0986,0.9146,-0.0688,4.2017,-285.7143,-7.3529,38.8,87340.0,,,,,,,,,,
6.03,,,,,,,,,242.25,8.72,-0.107,4.876,-0.385,1130.7,-26.968,,,
6.035,0.1177,0.938,-0.0801,1.7507,-283.1232,-7.6331,38.8,87339.0,,,,,,,,,,
6.04,,,,,,,,,242.016,8.839,-0.117,4.657,-0.39,1131.73,-27.207,,,
6.045,-0.0161,0.9155,0.0376,5.8824,-283.4034,-7.423,38.8,87343.0,,,,,,,,,,
6.05,,,,,,,,,241.773,8.951,-0.128,4.437,-0.394,1131.83,-27.321,,,
6.055,-0.0859,0.9434,0.1157,0.3501,-281.0924,-6.9328,38.8,87313.0,,,,,,,,,,
6.06,,,,,,,,,241.522,9.058,-0.136,4.214,-0.399,1131.73,-27.369,,,
6.065,-0.0767,0.9453,0.1826,7.7731,-281.3025,-6.3025,38.8,87284.0,,,,,,,,,,
6.07,,,,,,,,,241.264,9.159,-0.148,3.99,-0.402,1131.83,-27.397,,,
6.075,-0.0811,0.9355,0.144,4.0616,-285.4342,-5.9524,38.8,87327.0,,,,,,,,,,
6.08,,,,,,,,,240.996,9.254,-0.154,3.763,-0.406,1131.83,-27.684,,,
6.085,-0.1362,0.9434,0.0991,0.6303,-283.0532,-4.3417,38.8,87298.0,,,,,,,,,,
6.09,,,,,,,,,240.724,9.345,-0.162,3.531,-0.408,1132.95,-27.703,,,
6.095,-0.1807,0.9512,0.0972,4.4118,-281.9328,-3.2913,38.8,87283.0,,,,,,,,,,
6.1,,,,,,,,,240.442,9.429,-0.173,3.299,-0.408,1133.42,-28.094,,,
6.105,-0.1714,0.9634,0.0869,9.4538,-282.2829,-1.4706,38.8,87313.0,,,,,,,,,,
6.11,,,,,,,,,240.154,9.507,-0.181,3.066,-0.408,1133.42,-28.142,,,
6.115,-0.0356,0.9731,0.0493,5.7423,-280.8123,-2.591,38.8,87267.0,,,,,,,,,,
6.12,,,,,,,,,239.859,9.58,-0.183,2.83,-0.408,1134.27,-28.247,,,
6.125,0.0674,0.9746,-0.0059,1.7507,-280.8123,-4.902,38.8,87295.0,,,,,,,,,,
6.13,,,,,,,,,239.558,9.647,-0.189,2.594,-0.407,1134.27,-28.247,,,
6.135,0.0327,0.9824,-0.0337,5.6022,-281.7227,-4.0616,38.8,87320.0,,,,,,,,,,
6.14,,,,,,,,,239.253,9.707,-0.198,2.356,-0.407,1135.68,-28.285,,,
6.145,0.0376,0.9883,0.0273,9.0336,-281.4426,-2.451,38.7,87328.0,,,,,,,,,,
6.15,,,,,,,,,238.941,9.762,-0.204,2.117,-0.407,1135.68,-28.399,,,
6.155,-0.0049,0.9956,0.0874,7.493,-284.6639,-2.8711,38.8,87330.0,,,,,,,,,,
6.16,,,,,,,,,238.62,9.811,-0.207,1.876,-0.406,1135.68,-28.638,,,
6.165,-0.0278,1.0068,0.104,2.591,-282.1429,-3.0812,38.8,87311.0,,,,,,,,,,
6.17,,,,,,,,,238.286,9.855,-0.211,1.631,-0.405,1134.27,-28.829,39.388370513916016,-8.288515090942383,4.0
6.175,-0.0391,0.9893,0.104,4.7619,-281.9328,-3.0112,38.7,87326.0,,,,,,,,,,
6.18,,,,,,,,,237.946,9.892,-0.219,1.387,-0.403,1134.46,-28.857,,,
6.185,-0.0903,1.0181,0.0591,11.0644,-281.0924,-2.6611,38.7,87312.0,,,,,,,,,,
6.19,,,,,,,,,237.597,9.923,-0.225,1.143,-0.401,1134.27,-29.01,,,
6.195,-0.0898,1.0107,0.0864,11.3445,-278.0112,-1.4706,38.8,87272.0,,,,,,,,,,
6.2,,,,,,,,,237.241,9.948,-0.225,0.899,-0.399,1134.27,-29.125,,,
6.205,-0.022,1.0293,0.002,5.2521,-276.6807,-2.7311,38.7,87308.0,,,,,,,,,,
6.21,,,,,,,,,236.878,9.967,-0.225,0.656,-0.396,1134.36,-29.144,,,
6.215,-0.0532,1.0415,-0.04,4.1317,-275.0,-2.2409,38.7,87261.0,,,,,,,,,,
6.22,,,,,,,,,236.508,9.98,-0.23,0.415,-0.394,1134.36,-29.268,,,
6.225,-0.0513,1.0176,0.0703,10.1541,-278.1513,-2.3109,38.8,87307.0,,,,,,,,,,
6.23,,,,,,,,,236.13,9.988,-0.236,0.175,-0.39,1134.36,-29.487,,,
6.235,-0.1025,1.0332,0.0059,10.7143,-277.6611,-1.7507,38.7,87237.0,,,,,,,,,,
6.24,,,,,,,,,235.745,9.989,-0.236,-0.067,-0.387,1134.46,-29.564,,,
6.245,0.0186,1.0557,-0.0796,10.3641,-274.4398,-2.9412,38.7,87309.0,,,,,,,,,,
6.25,,,,,,,,,235.354,9.985,-0.236,-0.31,-0.383,1134.74,-29.697,,,
6.255,0.0679,1.0649,-0.1543,8.1933,-272.0588,-3.3613,38.7,87270.0,,,,,,,,,,
6.26,,,,,,,,,234.956,9.974,-0.236,-0.549,-0.38,1134.74,-29.707,,,
6.265,0.0537,1.0693,-0.0459,7.8431,-272.9692,-3.8515,38.8,87290.0,,,,,,,,,,
6.27,,,,,,,,,234.551,9.958,-0.237,-0.787,-0.377,1134.83,-29.926,,,
6.275,0.0137,1.0713,-0.0044,4.4118,-270.6583,-3.9916,38.7,87235.0,,,,,,,,,,
6.28,,,,,,,,,234.143,9.937,-0.239,-1.024,-0.374,1136.43,-30.003,,,
6.285,0.0059,1.0752,0.001,2.521,-271.4286,-4.2717,38.7,87301.0,,,,,,,,,,
6.29,,,,,,,,,233.733,9.91,-0.243,-1.259,-0.372,1138.12,-30.165,,,
6.295,0.0088,1.0649,0.0059,3.3613,-267.507,-4.6919,38.7,87318.0,,,,,,,,,,
6.3,,,,,,,,,233.309,9.877,-0.249,-1.494,-0.37,1136.43,-30.442,,,
6.305,-0.0449,1.0737,-0.0547,2.7311,-262.395,-4.8319,38.7,87280.0,,,,,,,,,,
6.31,,,,,,,,,232.878,9.839,-0.254,-1.725,-0.368,1136.43,-30.623,,,
6.315,-0.0171,1.0874,-0.1436,-1.6106,-261.7647,-5.042,38.7,87221.0,,,,,,,,,,
6.32,,,,,,,,,232.441,9.797,-0.259,-1.95,-0.366,1136.43,-30.623,,,
6.325,-0.0522,1.0796,-0.1152,-3.1513,-258.4734,-3.7115,38.7,87168.0,,,,,,,,,,
6.33,,,,,,,,,232.0,9.75,-0.268,-2.173,-0.365,1137.37,-30.709,,,
6.335,-0.0347,1.0879,0.04,-6.4426,-256.1625,-4.1317,38.7,87209.0,,,,,,,,,,
6.34,,,,,,,,,231.554,9.698,-0.278,-2.393,-0.363,1137.37,-30.747,,,
6.345,-0.0635,1.0552,-0.0298,-6.9328,-256.3725,-3.4314,38.8,87127.0,,,,,,,,,,
6.35,,,,,,,,,231.104,9.642,-0.29,-2.609,-0.362,1138.31,-30.795,,,
6.355,0.0391,1.0728,-0.0264,-4.0616,-254.7619,-4.3417,38.7,87114.0,,,,,,,,,,
6.36,,,,,,,,,230.658,9.581,-0.303,-2.824,-0.36,1141.6,-30.795,,,
6.365,0.0508,1.0728,-0.0806,-2.591,-260.2241,-4.2717,38.7,87099.0,,,,,,,,,,
6.37,,,,,,,,,230.21,9.515,-0.313,-3.037,-0.358,1142.91,-30.795,39.3882942199707,-8.288496971130371,3.0
6.375,0.0352,1.0718,-0.0479,-0.9104,-258.8235,-4.2017,38.7,87055.0,,,,,,,,,,
6.38,,,,,,,,,229.76,9.443,-0.322,-3.253,-0.355,1144.04,-30.795,,,
6.385,-0.0576,1.0415,0.0479,-2.0308,-260.014,-3.2213,38.7,87027.0,,,,,,,,,,
6.39,,,,,,,,,229.316,9.367,-0.329,-3.465,-0.352,1147.89,-30.776,,,
6.395,-0.0303,1.0391,0.0757,-2.9412,-260.2941,-3.0112,38.7,86957.0,,,,,,,,,,
6.4,,,,,,,,,228.877,9.286,-0.337,-3.677,-0.348,1151.75,-30.776,,,
6.405,0.0171,1.0547,0.0869,2.8011,-260.5742,-3.5014,38.7,86945.0,,,,,,,,,,
6.41,,,,,,,,,228.437,9.2,-0.346,-3.887,-0.343,1152.97,-30.776,,,
6.415,-0.02,1.0493,0.0664,-1.3305,-261.8347,-3.0112,38.7,86964.0,,,,,,,,,,
6.42,,,,,,,,,227.995,9.109,-0.35,-4.096,-0.338,1154.38,-30.756,,,
6.425,0.082,1.0664,0.084,-0.2801,-264.2857,-4.2017,38.7,86890.0,,,,,,,,,,
6.43,,,,,,,,,227.562,9.013,-0.358,-4.303,-0.333,1158.52,-30.432,,,
6.435,0.0518,1.0332,0.0303,1.6807,-267.8571,-3.6415,38.7,86871.0,,,,,,,,,,
6.44,,,,,,,,,227.132,8.911,-0.363,-4.51,-0.328,1161.16,-30.432,,,
6.445,0.0117,1.0361,0.0781,2.2409,-269.2577,-2.8711,38.7,86818.0,,,,,,,,,,
6.45,,,,,,,,,226.714,8.803,-0.368,-4.718,-0.322,1167.09,-30.422,,,
6.455,-0.021,1.0586,0.0688,1.6106,-269.6779,-3.1513,38.7,86851.0,,,,,,,,,,
6.46,,,,,,,,,226.292,8.689,-0.372,-4.924,-0.314,1167.75,-30.317,,,
6.465,-0.0068,1.0415,0.1011,2.381,-275.1401,-3.5014,38.7,86780.0,,,,,,,,,,
6.47,,,,,,,,,225.869,8.571,-0.377,-5.127,-0.307,1168.88,-30.317,,,
6.475,0.0254,1.0229,0.0889,2.8711,-273.7395,-3.5714,38.7,86779.0,,,,,,,,,,
6.48,,,,,,,,,225.456,8.445,-0.38,-5.332,-0.3,1174.06,-30.165,,,
6.485,0.0557,1.04,0.0781,4.3417,-275.9804,-3.6415,38.7,86777.0,,,,,,,,,,
6.49,,,,,,,,,225.043,8.315,-0.383,-5.533,-0.292,1175.86,-30.165,,,
6.495,0.0825,1.0356,0.0776,3.2213,-281.7227,-4.4118,38.7,86725.0,,,,,,,,,,
6.5,,,,,,,,,224.63,8.18,-0.385,-5.732,-0.284,1177.74,-30.165,,,
6.505,0.0005,1.0127,0.0439,6.4426,-280.112,-4.3417,38.7,86668.0,,,,,,,,,,
6.51,,,,,,,,,224.22,8.036,-0.387,-5.931,-0.276,1180.86,-30.136,,,
6.515,-0.0518,1.0107,0.0361,5.112,-281.4426,-4.2717,38.7,86595.0,,,,,,,,,,
6.52,,,,,,,,,223.816,7.889,-0.387,-6.127,-0.266,1184.44,-30.06,,,
6.525,-0.0908,1.0127,0.0474,3.9916,-280.112,-2.6611,38.7,86569.0,,,,,,,,,,
6.53,,,,,,,,,223.406,7.736,-0.387,-6.319,-0.257,1184.53,-30.05,,,
6.535,0.0015,0.9834,0.1006,2.591,-280.4622,-4.5518,38.7,86470.0,,,,,,,,,,
6.54,,,,,,,,,222.992,7.579,-0.389,-6.506,-0.247,1184.72,-30.05,,,
6.545,-0.0098,0.958,0.1177,4.972,-281.1625,-5.042,38.7,86456.0,,,,,,,,,,
6.55,,,,,,,,,222.588,7.417,-0.39,-6.69,-0.239,1189.63,-29.802,,,
6.555,0.0356,0.9653,-0.0005,3.0112,-283.4734,-4.4818,38.7,86401.0,,,,,,,,,,
6.56,,,,,,,,,222.197,7.251,-0.389,-6.871,-0.23,1195.01,-29.602,,,
6.565,0.1016,0.9536,0.0229,2.381,-281.0224,-4.972,38.7,86288.0,,,,,,,,,,
6.57,,,,,,,,,221.819,7.078,-0.39,-7.048,-0.222,1201.91,-29.602,,,
6.575,-0.0117,0.9341,0.0581,7.7031,-284.4538,-5.6022,38.7,86235.0,,,,,,,,,,
6.58,,,,,,,,,221.444,6.903,-0.39,-7.22,-0.214,1204.37,-29.564,,,
6.585,-0.0171,0.9194,0.0479,5.5322,-280.6022,-6.4426,38.7,86221.0,,,,,,,,,,
6.59,,,,,,,,,221.094,6.722,-0.387,-7.39,-0.203,1213.73,-29.029,,,
6.595,-0.0835,0.9136,0.0566,2.9412,-278.5014,-5.3922,38.7,86176.0,,,,,,,,,,
6.6,,,,,,,,,220.746,6.539,-0.384,-7.553,-0.193,1215.06,-28.676,,,
6.605,-0.0952,0.8975,0.0693,6.7227,-276.4706,-3.9916,38.7,86133.0,,,,,,,,,,
6.61,,,,,,,,,220.409,6.353,-0.383,-7.71,-0.185,1220.27,-28.533,,,
6.615,-0.0977,0.8892,0.019,5.6723,-274.7199,-1.9608,38.7,86070.0,,,,,,,,,,
6.62,,,,,,,,,220.097,6.165,-0.38,-7.861,-0.174,1230.97,-28.447,,,
6.625,-0.0635,0.9058,-0.0674,3.0812,-271.6387,-2.521,38.7,86020.0,,,,,,,,,,
6.63,,,,,,,,,219.797,5.975,-0.38,-8.007,-0.162,1236.0,-28.065,,,
6.635,-0.0449,0.8916,-0.0386,0.9104,-271.6387,-3.8515,38.7,85988.0,,,,,,,,,,
6.64,,,,,,,,,219.497,5.783,-0.38,-8.147,-0.152,1237.33,-27.779,,,
6.645,-0.0317,0.8696,-0.0186,6.0924,-273.4594,-4.6919,38.7,85925.0,,,,,,,,,,
6.65,,,,,,,,,219.205,5.588,-0.38,-8.282,-0.144,1241.6,-27.665,,,
6.655,0.0005,0.856,0.001,4.4818,-275.0,-4.4118,38.7,85895.0,,,,,,,,,,
6.66,,,,,,,,,218.919,5.389,-0.376,-8.413,-0.133,1245.68,-27.512,,,
6.665,0.0244,0.8599,0.0405,8.8235,-273.5994,-4.0616,38.7,85804.0,,,,,,,,,,
6.67,,,,,,,,,218.647,5.186,-0.374,-8.54,-0.123,1251.66,-27.35,,,
6.675,-0.0161,0.8501,0.0796,5.9524,-270.3782,-3.5014,38.7,85798.0,,,,,,,,,,
6.68,,,,,,,,,218.382,4.98,-0.369,-8.662,-0.109,1256.41,-27.235,,,
6.685,-0.0703,0.8301,0.0742,0.4902,-268.9776,-2.6611,38.7,85747.0,,,,,,,,,,
6.69,,,,,,,,,218.121,4.775,-0.366,-8.778,-0.097,1259.45,-27.187,,,
6.695,-0.0112,0.8228,0.0283,1.7507,-266.8067,-3.2213,38.7,85655.0,,,,,,,,,,
6.7,,,,,,,,,217.874,4.567,-0.365,-8.887,-0.089,1265.44,-26.806,,,
6.705,-0.0854,0.8135,-0.0176,5.1821,-266.9468,-2.0308,38.7,85629.0,,,,,,,,,,
6.71,,,,,,,,,217.63,4.359,-0.364,-8.992,-0.081,1268.3,-26.615,,,
6.715,-0.0308,0.8105,-0.0225,5.3922,-265.7563,-2.1008,38.7,85641.0,,,,,,,,,,
6.72,,,,,,,,,217.406,4.148,-0.362,-9.091,-0.069,1276.96,-26.539,,,
6.725,-0.0508,0.8145,0.0205,5.4622,-265.2661,-2.2409,38.7,85588.0,,,,,,,,,,
6.73,,,,,,,,,217.178,3.936,-0.359,-9.185,-0.057,1277.53,-26.424,,,
6.735,-0.0332,0.7988,0.0215,6.6527,-262.6751,-2.8011,38.7,85540.0,,,,,,,,,,
6.74,,,,,,,,,216.961,3.722,-0.356,-9.274,-0.045,1282.39,-26.033,,,
6.745,0.0249,0.8096,0.001,4.8319,-261.5546,-2.381,38.7,85514.0,,,,,,,,,,
6.75,,,,,,,,,216.764,3.509,-0.353,-9.357,-0.032,1291.16,-25.89,,,
6.755,0.0229,0.8184,0.021,1.0504,-259.0336,-2.451,38.7,85559.0,,,,,,,,,,
6.76,,,,,,,,,216.565,3.294,-0.349,-9.435,-0.021,1292.5,-25.727,,,
6.765,-0.042,0.8188,0.0444,1.8908,-259.3137,-2.451,38.7,85583.0,,,,,,,,,,
6.77,,,,,,,,,216.364,3.08,-0.347,-9.507,-0.013,1293.64,-25.727,,,
6.775,-0.0361,0.8335,-0.0254,0.2801,-258.6835,-2.451,38.7,85582.0,,,,,,,,,,
6.78,,,,,,,,,216.167,2.864,-0.344,-9.574,-0.004,1297.55,-25.727,,,
6.785,-0.0317,0.8325,0.0264,3.0812,-261.2045,-1.8207,38.7,85571.0,,,,,,,,,,
6.79,,,,,,,,,215.964,2.647,-0.342,-9.637,0.003,1298.03,-25.727,,,
6.795,-0.0068,0.8413,-0.0073,4.6919,-260.7843,-2.1008,38.7,85533.0,,,,,,,,,,
6.8,,,,,,,,,215.755,2.426,-0.339,-9.695,0.013,1298.12,-25.727,,,
6.805,0.0278,0.8496,0.0713,7.1429,-260.6443,-2.8711,38.7,85551.0,,,,,,,,,,
6.81,,,,,,,,,215.543,2.205,-0.336,-9.747,0.024,1299.18,-25.804,,,
6.815,0.0156,0.8535,0.0718,3.0112,-256.1625,-2.7311,38.7,85511.0,,,,,,,,,,
6.82,,,,,,,,,215.326,1.983,-0.331,-9.795,0.037,1300.32,-25.813,,,
6.825,-0.0044,0.854,0.0801,1.9608,-256.7227,-2.591,38.7,85539.0,,,,,,,,,,
6.83,,,,,,,,,215.103,1.763,-0.327,-9.837,0.047,1301.08,-26.08,,,
6.835,0.0337,0.8569,0.0771,2.1008,-257.493,-3.2213,38.7,85553.0,,,,,,,,,,
6.84,,,,,,,,,214.873,1.542,-0.323,-9.874,0.056,1301.08,-26.1,,,
6.845,0.0078,0.8745,0.0376,3.6415,-257.0028,-3.9216,38.7,85509.0,,,,,,,,,,
6.85,,,,,,,,,214.635,1.32,-0.318,-9.907,0.064,1300.89,-26.252,,,
6.855,0.0093,0.8721,-0.02,4.972,-257.493,-3.9916,38.7,85509.0,,,,,,,,,,
6.86,,,,,,,,,214.39,1.097,-0.312,-9.934,0.074,1301.08,-26.414,,,
6.865,-0.0376,0.8931,0.0576,2.0308,-255.5322,-2.8711,38.7,85488.0,,,,,,,,,,
6.87,,,,,,,,,214.141,0.873,-0.306,-9.956,0.085,1302.23,-26.491,,,
6.875,-0.0493,0.8843,0.0347,4.972,-256.5826,-3.1513,38.7,85528.0,,,,,,,,,,
6.88,,,,,,,,,213.887,0.651,-0.301,-9.973,0.094,1302.8,-26.5,,,
6.885,-0.0269,0.8887,0.0532,2.8011,-256.0924,-3.9216,38.7,85527.0,,,,,,,,,,
6.89,,,,,,,,,213.628,0.428,-0.295,-9.985,0.105,1303.28,-26.558,,,
6.895,0.0098,0.8911,-0.022,4.902,-260.084,-4.1317,38.7,85522.0,,,,,,,,,,
6.9,,,,,,,,,213.36,0.204,-0.289,-9.993,0.114,1303.37,-26.853,,,
6.905,-0.0068,0.9092,0.0234,6.9328,-259.5238,-4.4118,38.7,85485.0,,,,,,,,,,
6.91,,,,,,,,,213.087,-0.022,-0.282,-9.995,0.125,1303.85,-26.901,,,
6.915,-0.0508,0.9019,0.0254,5.8123,-260.014,-3.9216,38.7,85468.0,,,,,,,,,,
6.92,,,,,,,,,212.806,-0.248,-0.275,-9.992,0.137,1303.85,-27.092,,,
6.925,-0.0215,0.9014,0.0083,3.9216,-261.9048,-3.8515,38.7,85477.0,,,,,,,,,,
6.93,,,,,,,,,212.522,-0.475,-0.269,-9.983,0.149,1305.09,-27.178,,,
6.935,-0.0776,0.894,0.0698,5.8123,-267.6471,-3.2213,38.7,85456.0,,,,,,,,,,
6.94,,,,,,,,,212.231,-0.703,-0.261,-9.97,0.159,1305.09,-27.226,,,
6.945,-0.0532,0.9126,0.0522,6.2325,-264.1457,-3.0112,38.7,85429.0,,,,,,,,,,
6.95,,,,,,,,,211.94,-0.936,-0.255,-9.951,0.17,1307.1,-27.264,,,
6.955,-0.022,0.9058,0.0615,6.7227,-266.7367,-3.3613,38.7,85399.0,,,,,,,,,,
6.96,,,,,,,,,211.643,-1.165,-0.248,-9.927,0.182,1307.39,-27.283,,,
6.965,-0.0542,0.9067,0.0337,5.4622,-262.465,-2.8711,38.7,85408.0,,,,,,,,,,
6.97,,,,,,,,,211.342,-1.396,-0.242,-9.897,0.194,1308.15,-27.426,39.3882942199707,-8.288496971130371,3.0
6.975,-0.0454,0.8931,0.0166,3.3613,-261.8347,-2.381,38.7,85365.0,,,,,,,,,,
6.98,,,,,,,,,211.037,-1.622,-0.235,-9.862,0.205,1309.01,-27.436,,,
6.985,-0.0161,0.9131,-0.0942,4.7619,-260.1541,-2.8711,38.7,85325.0,,,,,,,,,,
6.99,,,,,,,,,210.73,-1.847,-0.228,-9.822,0.214,1310.16,-27.436,,,
6.995,-0.0366,0.8979,-0.0298,7.7031,-261.7647,-2.591,38.7,85305.0,,,,,,,,,,
7.0,,,,,,,,,210.424,-2.069,-0.221,-9.778,0.224,1312.74,-27.512,,,
7.005,-0.0601,0.8901,-0.0049,6.0224,-264.6359,-2.6611,38.7,85241.0,,,,,,,,,,
7.01,,,,,,,,,210.118,-2.292,-0.215,-9.728,0.236,1314.74,-27.436,,,
7.015,-0.0742,0.8979,0.0278,5.8123,-264.2157,-2.0308,38.7,85244.0,,,,,,,,,,
7.02,,,,,,,,,209.809,-2.516,-0.208,-9.672,0.247,1315.6,-27.426,,,
7.025,-0.0654,0.8789,0.083,3.9216,-268.4874,-2.0308,38.7,85211.0,,,,,,,,,,
7.03,,,,,,,,,209.504,-2.739,-0.202,-9.611,0.257,1318.86,-27.359,,,
7.035,-0.0342,0.877,0.0107,5.1821,-264.6359,-2.591,38.7,85202.0,,,,,,,,,,
7.04,,,,,,,,,209.205,-2.963,-0.195,-9.544,0.266,1322.68,-27.359,,,
7.045,-0.0264,0.9028,0.0088,4.3417,-263.2353,-2.7311,38.7,85168.0,,,,,,,,,,
7.05,,,,,,,,,208.905,-3.183,-0.187,-9.473,0.276,1324.59,-27.359,,,
7.055,-0.0513,0.8823,-0.0625,4.972,-262.3249,-1.7507,38.7,85186.0,,,,,,,,,,
7.06,,,,,,,,,208.616,-3.4,-0.18,-9.398,0.285,1330.43,-27.359,,,
7.065,-0.0195,0.8848,-0.0269,3.3613,-260.6443,-0.9104,38.7,85179.0,,,,,,,,,,
7.07,,,,,,,,,208.322,-3.614,-0.173,-9.317,0.293,1330.72,-27.264,,,
7.075,-0.0381,0.8667,0.0044,3.7115,-264.7059,-1.2605,38.7,85077.0,,,,,,,,,,
7.08,,,,,,,,,208.032,-3.825,-0.166,-9.232,0.301,1333.59,-27.207,,,
7.085,-0.0508,0.8706,0.0791,3.3613,-265.3361,-1.6106,38.7,85083.0,,,,,,,,,,
7.09,,,,,,,,,207.74,-4.038,-0.159,-9.141,0.308,1334.46,-27.102,,,
7.095,-0.0264,0.8823,0.0303,4.6919,-265.8964,-1.1905,38.7,85007.0,,,,,,,,,,
7.1,,,,,,,,,207.447,-4.248,-0.151,-9.045,0.315,1335.99,-27.054,,,
7.105,0.0234,0.8726,0.0278,4.8319,-267.6471,-1.4706,38.7,85032.0,,,,,,,,,,
7.11,,,,,,,,,207.15,-4.457,-0.145,-8.944,0.323,1336.66,-27.054,,,
7.115,0.0269,0.8721,0.0039,6.0924,-265.4062,-1.4706,38.7,84954.0,,,,,,,,,,
7.12,,,,,,,,,206.85,-4.665,-0.138,-8.837,0.331,1337.71,-26.987,,,
7.125,0.0103,0.8784,0.0044,5.112,-266.1765,-1.8908,38.7,84947.0,,,,,,,,,,
7.13,,,,,,,,,206.569,-4.868,-0.131,-8.727,0.34,1345.86,-26.949,,,
7.135,-0.0303,0.8589,0.0493,3.9216,-271.0084,-2.2409,38.7,84949.0,,,,,,,,,,
7.14,,,,,,,,,206.283,-5.07,-0.123,-8.611,0.348,1346.43,-26.978,,,
7.145,-0.0024,0.8574,0.0776,4.4818,-270.028,-2.1008,38.7,84901.0,,,,,,,,,,
7.15,,,,,,,,,206.005,-5.272,-0.115,-8.488,0.355,1350.75,-26.863,,,
7.155,0.0195,0.853,0.0112,3.9216,-270.7283,-2.7311,38.7,84897.0,,,,,,,,,,
7.16,,,,,,,,,205.728,-5.471,-0.107,-8.361,0.362,1353.15,-26.853,,,
7.165,0.0698,0.8628,0.021,5.3221,-269.2577,-3.8515,38.7,84835.0,,,,,,,,,,
7.17,,,,,,,,,205.46,-5.667,-0.098,-8.23,0.369,1358.24,-26.825,,,
7.175,0.0171,0.8696,0.0283,2.8711,-270.2381,-4.2017,38.7,84845.0,,,,,,,,,,
7.18,,,,,,,,,205.187,-5.859,-0.089,-8.094,0.377,1358.72,-26.825,,,
7.185,0.0039,0.8506,0.1064,5.5322,-269.2577,-4.5518,38.7,84799.0,,,,,,,,,,
7.19,,,,,,,,,204.91,-6.048,-0.078,-7.953,0.384,1358.91,-26.806,,,
7.195,-0.0625,0.8574,0.0322,3.8515,-269.2577,-4.8319,38.7,84790.0,,,,,,,,,,
7.2,,,,,,,,,204.64,-6.233,-0.069,-7.809,0.392,1363.33,-26.672,,,
7.205,-0.0146,0.8291,0.0767,3.9216,-269.888,-5.5322,38.7,84750.0,,,,,,,,,,
7.21,,,,,,,,,204.367,-6.415,-0.058,-7.66,0.399,1363.71,-26.596,,,
7.215,-0.0039,0.8457,0.0005,4.8319,-266.5966,-5.3922,38.7,84751.0,,,,,,,,,,
7.22,,,,,,,,,204.102,-6.593,-0.047,-7.506,0.407,1368.71,-26.567,,,
7.225,-0.0171,0.8594,0.0044,2.7311,-264.2857,-5.4622,38.7,84721.0,,,,,,,,,,
7.23,,,,,,,,,203.834,-6.766,-0.037,-7.351,0.414,1369.67,-26.567,,,
7.235,-0.0195,0.8452,0.0098,4.902,-263.2353,-5.3221,38.7,84673.0,,,,,,,,,,
7.24,,,,,,,,,203.57,-6.934,-0.025,-7.192,0.42,1373.13,-26.567,,,
7.245,-0.0156,0.8384,0.0615,6.5126,-263.6555,-5.6022,38.7,84676.0,,,,,,,,,,
7.25,,,,,,,,,203.304,-7.097,-0.015,-7.031,0.428,1373.99,-26.481,,,
7.255,-0.021,0.8481,0.0264,4.0616,-265.1261,-6.0224,38.6,84572.0,,,,,,,,,,
7.26,,,,,,,,,203.043,-7.257,-0.006,-6.865,0.436,1377.74,-26.434,,,
7.265,-0.0234,0.8398,0.0566,4.902,-262.9552,-5.8824,38.7,84606.0,,,,,,,,,,
7.27,,,,,,,,,202.777,-7.414,0.005,-6.695,0.442,1377.84,-26.386,,,
7.275,-0.002,0.8462,0.0352,4.6218,-264.7759,-6.8627,38.6,84565.0,,,,,,,,,,
7.28,,,,,,,,,202.514,-7.565,0.015,-6.523,0.449,1380.63,-26.338,,,
7.285,-0.084,0.8311,0.0532,6.8627,-262.8852,-5.8123,38.7,84629.0,,,,,,,,,,
7.29,,,,,,,,,202.257,-7.714,0.026,-6.346,0.456,1384.96,-26.338,,,
7.295,-0.0688,0.8311,0.0684,5.6022,-261.6947,-5.3922,38.7,84569.0,,,,,,,,,,
7.3,,,,,,,,,201.995,-7.857,0.036,-6.167,0.463,1385.25,-26.329,,,
7.305,-0.0225,0.8354,0.0762,6.1625,-258.2633,-5.4622,38.7,84514.0,,,,,,,,,,
7.31,,,,,,,,,201.74,-7.996,0.045,-5.986,0.47,1389.48,-26.329,,,
7.315,-0.104,0.8159,0.0127,4.2717,-257.563,-5.1821,38.7,84492.0,,,,,,,,,,
7.32,,,,,,,,,201.486,-8.129,0.055,-5.803,0.476,1391.7,-26.224,,,
7.325,-0.0728,0.8325,0.0059,6.3025,-258.8936,-4.902,38.6,84437.0,,,,,,,,,,
7.33,,,,,,,,,201.235,-8.257,0.065,-5.619,0.481,1394.98,-26.195,,,
7.335,-0.0957,0.8145,0.0073,5.042,-258.6134,-3.8515,38.6,84456.0,,,,,,,,,,
7.34,,,,,,,,,200.981,-8.382,0.074,-5.43,0.486,1395.26,-26.138,,,
7.345,-0.0664,0.811,0.021,2.8711,-258.6134,-4.2017,38.7,84433.0,,,,,,,,,,
7.35,,,,,,,,,200.722,-8.502,0.083,-5.239,0.49,1395.65,-26.08,,,
7.355,-0.0254,0.8174,-0.0117,3.1513,-258.3333,-4.2017,38.6,84407.0,,,,,,,,,,
7.36,,,,,,,,,200.472,-8.618,0.094,-5.046,0.493,1400.57,-26.052,,,
7.365,-0.0234,0.8291,0.0566,2.591,-259.0336,-4.4818,38.6,84358.0,,,,,,,,,,
7.37,,,,,,,,,200.222,-8.73,0.104,-4.85,0.495,1402.69,-26.052,39.3882942199707,-8.288496971130371,4.0
7.375,-0.0396,0.8208,0.0493,4.4818,-257.7031,-4.902,38.6,84401.0,,,,,,,,,,
7.38,,,,,,,,,199.977,-8.837,0.115,-4.651,0.498,1406.16,-26.014,,,
7.385,-0.0649,0.8096,0.0532,3.2213,-256.1625,-3.9916,38.6,84293.0,,,,,,,,,,
7.39,,,,,,,,,199.732,-8.939,0.125,-4.45,0.501,1407.99,-25.851,,,
7.395,-0.0391,0.8184,0.019,7.9832,-257.423,-3.0112,38.6,84317.0,,,,,,,,,,
7.4,,,,,,,,,199.484,-9.037,0.135,-4.249,0.503,1408.38,-25.785,,,
7.405,-0.0396,0.8091,0.0679,7.0028,-259.8039,-3.4314,38.7,84287.0,,,,,,,,,,
7.41,,,,,,,,,199.237,-9.13,0.142,-4.044,0.505,1410.89,-25.785,,,
7.415,-0.1021,0.8096,-0.0073,7.7031,-259.5238,-3.4314,38.6,84256.0,,,,,,,,,,
7.42,,,,,,,,,198.986,-9.219,0.149,-3.836,0.508,1411.47,-25.785,,,
7.425,-0.0894,0.7949,-0.0103,6.7927,-260.014,-2.591,38.6,84236.0,,,,,,,,,,
7.43,,,,,,,,,198.741,-9.304,0.155,-3.625,0.51,1415.62,-25.727,,,
7.435,-0.1045,0.8081,0.0005,7.7031,-258.4034,-1.9608,38.6,84202.0,,,,,,,,,,
7.44,,,,,,,,,198.503,-9.384,0.162,-3.413,0.511,1419.58,-25.661,,,
7.445,-0.0962,0.7964,-0.0073,5.3922,-256.7927,-1.2605,38.6,84239.0,,,,,,,,,,
7.45,,,,,,,,,198.265,-9.458,0.168,-3.2,0.511,1421.9,-25.632,,,
7.455,-0.0762,0.8066,0.0156,7.1429,-258.1232,-1.3305,38.6,84160.0,,,,,,,,,,
7.46,,,,,,,,,198.024,-9.528,0.175,-2.986,0.51,1422.47,-25.632,,,
7.465,-0.0068,0.8003,0.0322,6.2325,-255.1821,-1.6807,38.6,84159.0,,,,,,,,,,
7.47,,,,,,,,,197.785,-9.593,0.181,-2.77,0.51,1425.47,-25.622,,,
7.475,0.0073,0.791,0.0156,3.3613,-251.5406,-2.381,38.6,84110.0,,,,,,,,,,
7.48,,,,,,,,,197.546,-9.652,0.187,-2.556,0.509,1427.11,-25.603,,,
7.485,-0.0361,0.8032,0.0059,5.5322,-249.7199,-2.2409,38.6,84090.0,,,,,,,,,,
7.49,,,,,,,,,197.302,-9.706,0.196,-2.343,0.508,1427.4,-25.575,,,
7.495,-0.0435,0.7871,0.0376,6.4426,-248.9496,-0.9104,38.6,84048.0,,,,,,,,,,
7.5,,,,,,,,,197.062,-9.755,0.203,-2.13,0.507,1430.69,-25.508,,,
7.505,-0.0122,0.791,-0.0093,3.7815,-247.619,-0.6303,38.6,84036.0,,,,,,,,,,
7.51,,,,,,,,,196.828,-9.799,0.208,-1.917,0.504,1434.75,-25.451,,,
7.515,-0.0703,0.7822,0.0396,4.4818,-250.3501,-0.8403,38.6,84009.0,,,,,,,,,,
7.52,,,,,,,,,196.59,-9.838,0.216,-1.705,0.501,1434.85,-25.374,,,
7.525,0.0117,0.791,0.021,6.0224,-253.0112,-1.8908,38.6,84018.0,,,,,,,,,,
7.53,,,,,,,,,196.36,-9.873,0.223,-1.489,0.498,1439.59,-25.374,,,
7.535,0.0366,0.7817,-0.0166,3.5014,-255.8123,-2.3109,38.6,83949.0,,,,,,,,,,
7.54,,,,,,,,,196.13,-9.903,0.229,-1.27,0.496,1441.53,-25.269,,,
7.545,0.0479,0.7783,0.0015,3.7815,-254.3417,-2.6611,38.6,83975.0,,,,,,,,,,
7.55,,,,,,,,,195.906,-9.929,0.237,-1.048,0.493,1445.59,-25.269,,,
7.555,0.0127,0.7656,0.0449,3.8515,-251.5406,-3.0812,38.6,83967.0,,,,,,,,,,
7.56,,,,,,,,,195.679,-9.95,0.245,-0.827,0.491,1446.75,-25.269,,,
7.565,-0.0234,0.772,0.0049,2.3109,-252.2409,-3.2913,38.6,83948.0,,,,,,,,,,
7.57,,,,,,,,,195.453,-9.966,0.252,-0.608,0.489,1448.5,-25.193,,,
7.575,-0.0034,0.7671,0.021,2.3109,-252.3109,-3.9216,38.6,83849.0,,,,,,,,,,
7.58,,,,,,,,,195.224,-9.977,0.261,-0.388,0.487,1449.37,-25.098,,,
7.585,0.0273,0.7837,0.0264,3.3613,-252.1709,-4.4818,38.6,83856.0,,,,,,,,,,
7.59,,,,,,,,,194.999,-9.983,0.27,-0.168,0.484,1452.67,-25.088,,,
7.595,-0.0249,0.772,-0.0522,3.8515,-250.3501,-3.9916,38.6,83814.0,,,,,,,,,,
7.6,,,,,,,,,194.771,-9.984,0.277,0.052,0.483,1453.44,-25.088,,,
7.605,0.0195,0.7686,-0.0269,3.3613,-251.4006,-4.6919,38.6,83800.0,,,,,,,,,,
7.61,,,,,,,,,194.542,-9.98,0.284,0.27,0.48,1455.18,-25.021,,,
7.615,-0.0142,0.7534,-0.0317,1.6106,-255.1821,-4.7619,38.6,83764.0,,,,,,,,,,
7.62,,,,,,,,,194.309,-9.972,0.291,0.49,0.478,1455.28,-24.897,,,
7.625,-0.0322,0.7612,0.0298,1.6807,-254.902,-5.2521,38.6,83769.0,,,,,,,,,,
7.63,,,,,,,,,194.096,-9.958,0.3,0.712,0.476,1464.2,-24.897,,,
7.635,0.0015,0.7568,0.0649,1.5406,-253.2913,-4.972,38.6,83723.0,,,,,,,,,,
7.64,,,,,,,,,193.879,-9.94,0.309,0.934,0.474,1464.88,-24.83,,,
7.645,-0.0464,0.7568,0.0454,-0.2801,-255.5322,-4.7619,38.6,83705.0,,,,,,,,,,
7.65,,,,,,,,,193.667,-9.916,0.317,1.154,0.472,1468.28,-24.802,,,
7.655,-0.0254,0.7642,-0.0215,0.0,-253.3613,-4.3417,38.6,83690.0,,,,,,,,,,
7.66,,,,,,,,,193.452,-9.888,0.327,1.375,0.469,1469.64,-24.802,,,
7.665,-0.0684,0.7476,0.0078,1.4706,-253.8515,-4.0616,38.6,83609.0,,,,,,,,,,
7.67,,,,,,,,,193.241,-9.855,0.337,1.594,0.466,1472.65,-24.744,,,
7.675,-0.0464,0.7583,0.001,2.9412,-255.112,-3.9916,38.6,83637.0,,,,,,,,,,
7.68,,,,,,,,,193.027,-9.817,0.345,1.812,0.462,1473.13,-24.687,,,
7.685,-0.0337,0.7607,0.0552,1.7507,-255.4622,-4.4818,38.6,83626.0,,,,,,,,,,
7.69,,,,,,,,,192.818,-9.774,0.352,2.03,0.457,1477.11,-24.63,,,
7.695,-0.0386,0.7524,0.04,1.1905,-255.3922,-3.9916,38.6,83593.0,,,,,,,,,,
7.7,,,,,,,,,192.608,-9.726,0.359,2.248,0.453,1478.86,-24.63,,,
7.705,-0.0513,0.7432,0.0415,1.6807,-253.5714,-3.2913,38.6,83569.0,,,,,,,,,,
7.71,,,,,,,,,192.398,-9.673,0.367,2.465,0.448,1480.32,-24.601,,,
7.715,-0.0449,0.7563,0.0381,2.2409,-251.1905,-2.9412,38.6,83533.0,,,,,,,,,,
7.72,,,,,,,,,192.195,-9.616,0.375,2.679,0.443,1485.47,-24.601,,,
7.725,-0.0176,0.7568,0.0518,4.1317,-250.7703,-2.8711,38.6,83493.0,,,,,,,,,,
7.73,,,,,,,,,191.991,-9.555,0.382,2.889,0.437,1486.54,-24.601,,,
7.735,-0.0688,0.7339,0.0762,2.3109,-253.4314,-2.381,38.6,83500.0,,,,,,,,,,
7.74,,,,,,,,,191.785,-9.49,0.387,3.098,0.43,1488.2,-24.601,,,
7.745,-0.0322,0.7471,0.0688,1.8908,-254.2017,-2.1709,38.6,83475.0,,,,,,,,,,
7.75,,,,,,,,,191.578,-9.419,0.393,3.308,0.423,1489.75,-24.592,,,
7.755,0.0176,0.7603,0.0884,1.4706,-255.5322,-3.2913,38.6,83442.0,,,,,,,,,,
7.76,,,,,,,,,191.372,-9.343,0.4,3.516,0.415,1492.09,-24.515,,,
7.765,-0.0117,0.7344,0.0874,2.3109,-256.3725,-3.5014,38.6,83382.0,,,,,,,,,,
7.77,,,,,,,,,191.17,-9.262,0.407,3.724,0.409,1495.59,-24.592,,,
7.775,-0.0132,0.7563,0.0767,4.8319,-255.7423,-3.9916,38.6,83368.0,,,,,,,,,,
7.78,,,,,,,,,190.972,-9.176,0.413,3.931,0.402,1498.8,-24.515,,,
