ts,id,Ax,Ay,Az,Gx,Gy,Gz
-0.755,IMU0,0.03466796875,-0.51220703125,0.04296875,0.1400560224089636,0.700280112044818,0.2801120448179272
-0.745,IMU0,0.03564453125,-0.51171875,0.04296875,0.1400560224089636,0.6302521008403361,0.2801120448179272
-0.735,IMU0,0.03466796875,-0.51220703125,0.044921875,0.1400560224089636,0.6302521008403361,0.350140056022409
-0.725,IMU0,0.03466796875,-0.5126953125,0.044921875,0.0700280112044818,0.6302521008403361,0.2801120448179272
-0.715,IMU0,0.03466796875,-0.5107421875,0.04443359375,0.0700280112044818,0.5602240896358543,0.2801120448179272
-0.705,IMU0,0.03466796875,-0.51123046875,0.04541015625,0.0700280112044818,0.5602240896358543,0.2801120448179272
-0.695,IMU0,0.033203125,-0.51123046875,0.044921875,0.0,0.5602240896358543,0.2801120448179272
-0.685,IMU0,0.03369140625,-0.51318359375,0.04296875,0.0700280112044818,0.6302521008403361,0.2801120448179272
-0.675,IMU0,0.03515625,-0.51123046875,0.04345703125,0.0,0.7703081232492998,0.2801120448179272
-0.665,IMU0,0.033203125,-0.5126953125,0.04296875,0.1400560224089636,0.7703081232492998,0.2801120448179272
-0.655,IMU0,0.0341796875,-0.5126953125,0.04296875,0.0700280112044818,0.7703081232492998,0.2801120448179272
-0.645,IMU0,0.033203125,-0.5126953125,0.04443359375,0.0,0.7703081232492998,0.2801120448179272
-0.635,IMU0,0.0341796875,-0.51171875,0.04345703125,0.0700280112044818,0.700280112044818,0.2801120448179272
-0.625,IMU0,0.03515625,-0.51123046875,0.04443359375,0.1400560224089636,0.700280112044818,0.2801120448179272
-0.615,IMU0,0.03466796875,-0.51220703125,0.04443359375,0.1400560224089636,0.6302521008403361,0.2801120448179272
-0.605,IMU0,0.03466796875,-0.51123046875,0.04345703125,0.0700280112044818,0.6302521008403361,0.21008403361344538
-0.595,IMU0,0.0361328125,-0.51171875,0.04541015625,0.0700280112044818,0.700280112044818,0.21008403361344538
-0.585,IMU0,0.0361328125,-0.51123046875,0.0439453125,0.0,0.700280112044818,0.2801120448179272
-0.575,IMU0,0.0341796875,-0.51123046875,0.044921875,0.0700280112044818,0.700280112044818,0.2801120448179272
-0.565,IMU0,0.03515625,-0.51123046875,0.0439453125,0.1400560224089636,0.700280112044818,0.21008403361344538
-0.555,IMU0,0.03515625,-0.51025390625,0.04296875,0.1400560224089636,0.700280112044818,0.2801120448179272
-0.545,IMU0,0.03466796875,-0.51025390625,0.04345703125,0.1400560224089636,0.7703081232492998,0.2801120448179272
-0.535,IMU0,0.03369140625,-0.51171875,0.0439453125,0.1400560224089636,0.7703081232492998,0.2801120448179272
-0.525,IMU0,0.03515625,-0.5107421875,0.0439453125,0.0700280112044818,0.700280112044818,0.2801120448179272
-0.515,IMU0,0.03515625,-0.51220703125,0.046875,0.0700280112044818,0.6302521008403361,0.2801120448179272
-0.505,IMU0,0.0341796875,-0.513671875,0.04638671875,0.1400560224089636,0.6302521008403361,0.2801120448179272
-0.495,IMU0,0.03564453125,-0.51953125,0.04443359375,0.1400560224089636,0.6302521008403361,0.2801120448179272
-0.485,IMU0,0.0361328125,-0.5107421875,0.04443359375,0.1400560224089636,0.700280112044818,0.2801120448179272
-0.475,IMU0,0.03271484375,-0.5107421875,0.0517578125,0.0700280112044818,0.7703081232492998,0.2801120448179272
-0.465,IMU0,0.037109375,-0.5107421875,0.04443359375,0.0700280112044818,0.8403361344537815,0.350140056022409
-0.455,IMU0,0.03271484375,-0.5107421875,0.04443359375,0.0700280112044818,0.8403361344537815,0.2801120448179272
-0.445,IMU0,0.03662109375,-0.5107421875,0.04150390625,0.0700280112044818,0.9103641456582633,0.2801120448179272
-0.435,IMU0,0.03564453125,-0.51220703125,0.04443359375,0.0,0.7703081232492998,0.2801120448179272
-0.425,IMU0,0.03369140625,-0.5107421875,0.0419921875,0.1400560224089636,0.6302521008403361,0.2801120448179272
-0.415,IMU0,0.0341796875,-0.51025390625,0.044921875,0.0700280112044818,0.5602240896358543,0.21008403361344538
-0.405,IMU0,0.03515625,-0.5107421875,0.04296875,0.1400560224089636,0.42016806722689076,0.21008403361344538
-0.395,IMU0,0.03515625,-0.5126953125,0.04248046875,0.0700280112044818,0.5602240896358543,0.2801120448179272
-0.385,IMU0,0.03564453125,-0.51220703125,0.04638671875,0.0,0.700280112044818,0.2801120448179272
-0.375,IMU0,0.03564453125,-0.5126953125,0.04443359375,0.0700280112044818,0.8403361344537815,0.350140056022409
-0.365,IMU0,0.0361328125,-0.5126953125,0.04443359375,0.1400560224089636,0.7703081232492998,0.2801120448179272
-0.355,IMU0,0.0341796875,-0.513671875,0.0439453125,0.0700280112044818,0.7703081232492998,0.2801120448179272
-0.345,IMU0,0.037109375,-0.51220703125,0.04296875,0.1400560224089636,0.700280112044818,0.21008403361344538
-0.335,IMU0,0.03271484375,-0.51171875,0.044921875,0.1400560224089636,0.5602240896358543,0.21008403361344538
-0.325,IMU0,0.0361328125,-0.51025390625,0.046875,0.1400560224089636,0.42016806722689076,0.21008403361344538
-0.315,IMU0,0.03564453125,-0.5107421875,0.04443359375,0.0700280112044818,0.42016806722689076,0.21008403361344538
-0.305,IMU0,0.03369140625,-0.51171875,0.04248046875,0.0700280112044818,0.5602240896358543,0.2801120448179272
-0.295,IMU0,0.03759765625,-0.5126953125,0.04443359375,0.0700280112044818,0.6302521008403361,0.2801120448179272
-0.285,IMU0,0.03564453125,-0.51318359375,0.04296875,0.0700280112044818,0.8403361344537815,0.2801120448179272
-0.275,IMU0,0.0361328125,-0.51171875,0.04541015625,0.0700280112044818,0.9803921568627452,0.350140056022409
-0.265,IMU0,0.03271484375,-0.51171875,0.04296875,0.0700280112044818,0.9803921568627452,0.350140056022409
-0.255,IMU0,0.033203125,-0.51220703125,0.0439453125,0.1400560224089636,0.8403361344537815,0.350140056022409
-0.245,IMU0,0.03271484375,-0.51318359375,0.04638671875,0.0700280112044818,0.700280112044818,0.21008403361344538
-0.235,IMU0,0.0361328125,-0.51123046875,0.044921875,0.1400560224089636,0.42016806722689076,0.21008403361344538
-0.225,IMU0,0.033203125,-0.51123046875,0.04345703125,0.1400560224089636,0.350140056022409,0.21008403361344538
-0.215,IMU0,0.0361328125,-0.5107421875,0.04541015625,0.0700280112044818,0.350140056022409,0.21008403361344538
-0.205,IMU0,0.0341796875,-0.51220703125,0.04296875,0.1400560224089636,0.42016806722689076,0.21008403361344538
-0.195,IMU0,0.0361328125,-0.51171875,0.0458984375,0.0700280112044818,0.6302521008403361,0.2801120448179272
-0.185,IMU0,0.0361328125,-0.51220703125,0.0439453125,0.0700280112044818,0.700280112044818,0.350140056022409
-0.175,IMU0,0.03515625,-0.51025390625,0.0458984375,0.0700280112044818,0.8403361344537815,0.350140056022409
-0.165,IMU0,0.0341796875,-0.513671875,0.04443359375,0.0,0.9103641456582633,0.350140056022409
-0.155,IMU0,0.033203125,-0.51220703125,0.04345703125,0.0700280112044818,0.700280112044818,0.350140056022409
-0.145,IMU0,0.0341796875,-0.5126953125,0.0439453125,0.0,0.5602240896358543,0.350140056022409
-0.135,IMU0,0.03564453125,-0.51220703125,0.044921875,0.1400560224089636,0.4901960784313726,0.2801120448179272
-0.125,IMU0,0.0341796875,-0.52783203125,0.04931640625,0.0700280112044818,0.2801120448179272,0.2801120448179272
-0.115,IMU0,0.0478515625,-0.6220703125,0.05224609375,0.2801120448179272,0.21008403361344538,0.1400560224089636
-0.105,IMU0,-0.10595703125,-2.37890625,0.2861328125,0.1400560224089636,2.380952380952381,1.2605042016806722
-0.095,IMU0,-0.3505859375,-7.68701171875,-0.341796875,-24.649859943977592,4.69187675070028,-4.411764705882353
-0.085,IMU0,-0.11328125,-9.53955078125,-0.5908203125,-16.31652661064426,0.0,-0.9103641456582633
-0.075,IMU0,0.43798828125,-9.6220703125,0.162109375,4.061624649859944,9.103641456582633,2.73109243697479
-0.065,IMU0,0.0888671875,-9.56494140625,-0.236328125,-5.742296918767507,11.134453781512606,-4.201680672268908
-0.055,IMU0,0.16259765625,-9.474609375,-0.076171875,-0.0700280112044818,17.857142857142858,-1.050420168067227
-0.045,IMU0,0.19970703125,-9.58203125,-0.13623046875,-3.361344537815126,20.65826330532213,4.831932773109244
-0.035,IMU0,0.13671875,-9.69873046875,-0.2080078125,-7.42296918767507,33.54341736694678,2.801120448179272
-0.025,IMU0,0.16162109375,-9.83984375,-0.1826171875,2.8711484593837535,32.07282913165266,1.2605042016806722
-0.015,IMU0,0.11083984375,-9.97509765625,-0.10546875,1.9607843137254903,40.54621848739496,3.081232492997199
-0.005,IMU0,0.033203125,-10.09033203125,0.06787109375,3.5714285714285716,49.719887955182074,4.69187675070028
0.005,IMU0,0.05078125,-10.1162109375,-0.021484375,1.5406162464985995,33.4733893557423,2.3109243697478994
0.015,IMU0,0.02197265625,-10.169921875,0.31103515625,1.5406162464985995,24.50980392156863,-1.050420168067227
0.025,IMU0,0.03271484375,-10.2802734375,0.23681640625,3.431372549019608,12.254901960784315,-2.73109243697479
0.035,IMU0,0.1552734375,-10.39208984375,0.859375,2.73109243697479,-25.560224089635856,-7.773109243697479
0.045,IMU0,0.1435546875,-10.50634765625,0.1640625,-3.011204481792717,-40.476190476190474,-8.19327731092437
0.055,IMU0,0.2509765625,-10.71923828125,0.7734375,-7.703081232492997,-56.86274509803922,-7.352941176470589
0.065,IMU0,0.21826171875,-10.84375,0.4267578125,-16.80672268907563,-73.4593837535014,-8.96358543417367
0.075,IMU0,0.205078125,-10.94873046875,-0.1982421875,-21.568627450980394,-81.1624649859944,-7.703081232492997
0.085,IMU0,0.10791015625,-10.85400390625,-1.841796875,-18.207282913165265,-69.04761904761905,-5.8123249299719895
0.095,IMU0,0.4248046875,-10.95654296875,-0.13818359375,8.543417366946779,-51.5406162464986,-7.352941176470589
0.105,IMU0,0.0634765625,-11.068359375,-0.25048828125,13.375350140056023,-28.711484593837536,1.5406162464985995
0.115,IMU0,0.41015625,-11.16943359375,-0.06640625,17.92717086834734,5.322128851540617,6.022408963585434
0.125,IMU0,-0.05517578125,-11.08837890625,0.42529296875,6.862745098039216,18.837535014005603,7.492997198879552
0.135,IMU0,-0.1064453125,-11.05029296875,0.865234375,12.394957983193278,16.38655462184874,9.38375350140056
0.145,IMU0,-0.32470703125,-11.0498046875,1.0234375,0.4901960784313726,17.647058823529413,10.784313725490197
0.155,IMU0,0.0458984375,-11.05126953125,0.3408203125,-17.296918767507005,-53.36134453781513,-2.3109243697478994
0.165,IMU0,-0.3193359375,-10.93408203125,0.01513671875,-31.302521008403364,-30.602240896358545,-16.246498599439775
0.175,IMU0,0.16748046875,-10.845703125,-0.7265625,-25.490196078431374,0.2801120448179272,-10.154061624649861
0.185,IMU0,0.55419921875,-10.8505859375,-1.57177734375,-8.61344537815126,14.355742296918768,-5.742296918767507
0.195,IMU0,0.32958984375,-10.78857421875,-0.11328125,6.23249299719888,114.07563025210085,-4.901960784313726
0.205,IMU0,0.6484375,-10.802734375,-0.490234375,13.58543417366947,179.97198879551823,6.512605042016807
0.215,IMU0,0.4794921875,-10.80322265625,0.38525390625,14.005602240896359,249.57983193277312,22.058823529411764
0.225,IMU0,0.20947265625,-10.54638671875,1.14990234375,-1.680672268907563,193.83753501400562,18.417366946778714
0.235,IMU0,0.3125,-10.53271484375,-0.46044921875,-28.50140056022409,169.60784313725492,11.27450980392157
0.245,IMU0,-0.02294921875,-10.8740234375,0.30322265625,-30.742296918767508,136.9747899159664,10.434173669467787
0.255,IMU0,0.26513671875,-10.7861328125,0.3125,-0.6302521008403361,123.24929971988796,10.364145658263306
0.265,IMU0,0.1337890625,-10.8662109375,-0.30615234375,14.635854341736696,123.45938375350141,8.61344537815126
0.275,IMU0,0.30029296875,-10.80126953125,-0.18896484375,-6.652661064425771,116.66666666666667,4.341736694677872
0.285,IMU0,0.1533203125,-10.77490234375,0.15380859375,-22.689075630252102,111.27450980392157,10.294117647058824
0.295,IMU0,0.09619140625,-10.80908203125,0.1064453125,-8.683473389355743,109.31372549019608,18.69747899159664
0.305,IMU0,0.26806640625,-10.84326171875,-0.115234375,2.3109243697478994,108.40336134453781,12.394957983193278
0.315,IMU0,0.21337890625,-10.7578125,-0.11376953125,-10.434173669467787,104.06162464985995,5.042016806722689
0.325,IMU0,0.1552734375,-10.68017578125,0.1064453125,-17.647058823529413,99.08963585434174,12.254901960784315
0.335,IMU0,0.14794921875,-10.7353515625,-0.00390625,-11.69467787114846,96.00840336134455,22.54901960784314
0.345,IMU0,0.2890625,-10.78955078125,-0.01025390625,-8.263305322128852,92.99719887955183,15.406162464985995
0.355,IMU0,0.13427734375,-10.71728515625,-0.02685546875,-14.915966386554622,89.2156862745098,6.792717086834735
0.365,IMU0,0.181640625,-10.685546875,0.0595703125,-16.03641456582633,85.22408963585434,13.865546218487395
0.375,IMU0,0.2119140625,-10.7734375,-0.009765625,-13.58543417366947,81.51260504201682,22.969187675070028
0.385,IMU0,0.24609375,-10.80126953125,-0.01171875,-16.38655462184874,78.01120448179272,17.016806722689076
0.395,IMU0,0.1435546875,-10.7568359375,0.0126953125,-17.647058823529413,74.64985994397759,10.364145658263306
0.405,IMU0,0.2041015625,-10.78173828125,0.0546875,-14.635854341736696,71.1484593837535,16.876750700280112
0.415,IMU0,0.212890625,-10.859375,-0.02197265625,-17.086834733893557,67.92717086834735,22.408963585434176
0.425,IMU0,0.234375,-10.8759765625,0.0185546875,-20.72829131652661,64.42577030812325,16.596638655462186
0.435,IMU0,0.15966796875,-10.85302734375,0.052734375,-17.857142857142858,61.484593837535016,12.675070028011206
0.445,IMU0,0.21435546875,-10.9130859375,0.025390625,-14.985994397759104,58.333333333333336,17.57703081232493
0.455,IMU0,0.208984375,-10.97412109375,-0.01708984375,-19.88795518207283,54.13165266106443,19.39775910364146
0.465,IMU0,0.2216796875,-10.96826171875,0.07275390625,-20.72829131652661,50.7703081232493,14.285714285714286
0.475,IMU0,0.19189453125,-10.9755859375,0.0634765625,-15.476190476190476,48.94957983193277,12.605042016806724
0.485,IMU0,0.224609375,-11.02978515625,0.015625,-14.985994397759104,45.65826330532213,15.756302521008404
0.495,IMU0,0.2294921875,-11.0615234375,0.03076171875,-18.977591036414566,41.31652661064426,15.266106442577032
0.505,IMU0,0.21484375,-11.0986328125,0.09716796875,-17.50700280112045,38.16526610644258,11.414565826330533
0.515,IMU0,0.212890625,-11.126953125,0.0615234375,-13.23529411764706,35.43417366946779,11.064425770308123
0.525,IMU0,0.23388671875,-11.17626953125,0.03271484375,-14.215686274509805,31.232492997198882,12.324929971988796
0.535,IMU0,0.23876953125,-11.2216796875,0.08642578125,-16.106442577030812,27.17086834733894,10.504201680672269
0.545,IMU0,0.2255859375,-11.32666015625,0.060546875,-8.683473389355743,19.817927170868348,7.42296918767507
0.555,IMU0,0.248046875,-11.380859375,0.06689453125,-10.854341736694678,15.406162464985995,7.142857142857143
0.565,IMU0,0.25537109375,-11.42626953125,0.12060546875,-10.854341736694678,11.134453781512606,5.112044817927171
0.575,IMU0,0.232421875,-11.46533203125,0.10693359375,-5.602240896358544,6.022408963585434,3.081232492997199
0.585,IMU0,0.2353515625,-11.52978515625,0.07470703125,-3.781512605042017,1.5406162464985995,2.030812324929972
0.595,IMU0,0.23681640625,-11.5703125,0.0927734375,-7.492997198879552,-2.100840336134454,0.5602240896358543
0.605,IMU0,0.24560546875,-11.63623046875,0.11669921875,-2.100840336134454,-6.0924369747899165,-1.5406162464985995
0.615,IMU0,0.23291015625,-11.66552734375,0.091796875,1.1204481792717087,-9.73389355742297,-3.5014005602240896
0.625,IMU0,0.24658203125,-11.6923828125,0.08154296875,0.8403361344537815,-13.23529411764706,-4.411764705882353
0.635,IMU0,0.24853515625,-11.70751953125,0.119140625,0.21008403361344538,-17.787114845938376,-5.322128851540617
0.645,IMU0,0.23193359375,-11.7177734375,0.1083984375,3.9215686274509807,-22.408963585434176,-6.792717086834735
0.655,IMU0,0.2392578125,-11.7353515625,0.087890625,6.722689075630252,-25.980392156862745,-8.263305322128852
0.665,IMU0,0.244140625,-11.73486328125,0.0927734375,4.971988795518207,-30.602240896358545,-8.893557422969188
0.675,IMU0,0.2392578125,-11.72314453125,0.11376953125,6.23249299719888,-34.66386554621849,-9.173669467787116
0.685,IMU0,0.2431640625,-11.73291015625,0.1064453125,10.434173669467787,-38.93557422969188,-10.224089635854343
0.695,IMU0,0.2294921875,-11.71337890625,0.0673828125,13.095238095238097,-44.11764705882353,-11.484593837535014
0.705,IMU0,0.24072265625,-11.67578125,0.0947265625,11.134453781512606,-48.66946778711485,-11.834733893557424
0.715,IMU0,0.232421875,-11.65771484375,0.09912109375,10.57422969187675,-53.15126050420168,-11.764705882352942
0.725,IMU0,0.23388671875,-11.64697265625,0.0791015625,16.80672268907563,-57.77310924369748,-12.88515406162465
0.735,IMU0,0.23046875,-11.60595703125,0.06396484375,15.406162464985995,-61.20448179271709,-13.795518207282914
0.745,IMU0,0.24609375,-11.58203125,0.09765625,15.546218487394958,-67.01680672268908,-12.88515406162465
0.755,IMU0,0.22265625,-11.5673828125,0.08349609375,14.84593837535014,-70.72829131652661,-12.675070028011206
0.765,IMU0,0.236328125,-11.53515625,0.037109375,15.266106442577032,-75.70028011204482,-14.145658263305323
0.775,IMU0,0.2177734375,-11.49853515625,0.0771484375,12.46498599439776,-78.43137254901961,-14.985994397759104
0.785,IMU0,0.22607421875,-11.47802734375,0.0751953125,15.406162464985995,-81.65266106442577,-13.865546218487395
0.795,IMU0,0.21337890625,-11.45947265625,0.0283203125,12.184873949579833,-85.4341736694678,-13.865546218487395
0.805,IMU0,0.21875,-11.4296875,0.03564453125,10.994397759103641,-89.07563025210085,-14.985994397759104
0.815,IMU0,0.21875,-11.40771484375,0.04638671875,13.795518207282914,-93.83753501400561,-14.705882352941178
0.825,IMU0,0.201171875,-11.3876953125,0.0458984375,10.364145658263306,-97.89915966386555,-13.445378151260504
0.835,IMU0,0.1923828125,-11.36376953125,0.02734375,10.364145658263306,-100.14005602240897,-13.305322128851541
0.845,IMU0,0.18798828125,-11.35986328125,0.01513671875,8.823529411764707,-103.99159663865547,-13.935574229691877
0.855,IMU0,0.19091796875,-11.3720703125,0.01953125,8.683473389355743,-108.61344537815127,-12.88515406162465
0.865,IMU0,0.1845703125,-11.39208984375,0.0224609375,4.551820728291316,-114.49579831932773,-10.084033613445378
0.875,IMU0,0.17236328125,-11.29345703125,0.029296875,6.932773109243698,-118.41736694677871,-9.803921568627452
0.885,IMU0,0.1689453125,-11.26513671875,0.02490234375,3.2212885154061626,-122.3389355742297,-8.543417366946779
0.895,IMU0,0.19384765625,-11.251953125,0.0244140625,-0.6302521008403361,-127.73109243697479,-6.862745098039216
0.905,IMU0,0.18896484375,-11.2333984375,0.03857421875,-1.400560224089636,-131.44257703081234,-5.182072829131653
0.915,IMU0,0.1875,-11.2119140625,0.05908203125,-4.341736694677872,-134.03361344537817,-4.271708683473389
0.925,IMU0,0.17333984375,-11.1953125,0.03515625,-2.170868347338936,-138.37535014005604,-4.131652661064426
0.935,IMU0,0.1904296875,-11.16357421875,0.0419921875,-2.8711484593837535,-142.15686274509804,-3.781512605042017
0.945,IMU0,0.1923828125,-11.15478515625,0.0439453125,-7.42296918767507,-145.65826330532212,-2.3109243697478994
0.955,IMU0,0.17822265625,-11.14990234375,0.0546875,-9.033613445378151,-148.66946778711485,-1.4705882352941178
0.965,IMU0,0.197265625,-11.115234375,0.06103515625,-5.8123249299719895,-153.57142857142858,-2.5210084033613445
0.975,IMU0,0.1962890625,-11.08154296875,0.064453125,-6.652661064425771,-159.31372549019608,-2.3109243697478994
0.985,IMU0,0.189453125,-11.0712890625,0.06640625,-6.512605042016807,-157.63305322128852,-0.5602240896358543
0.995,IMU0,0.2138671875,-11.0634765625,0.078125,-11.344537815126051,-157.2829131652661,-1.1204481792717087
1.005,IMU0,0.22705078125,-11.02978515625,0.10107421875,-10.294117647058824,-163.23529411764707,-2.380952380952381
1.015,IMU0,0.1875,-11.0087890625,0.06884765625,-8.403361344537815,-168.34733893557424,-1.4705882352941178
1.025,IMU0,0.216796875,-11.0126953125,0.087890625,-1.680672268907563,-172.05882352941177,-1.3305322128851542
1.035,IMU0,0.22412109375,-11.0068359375,0.10546875,-2.801120448179272,-171.07843137254903,-4.201680672268908
1.045,IMU0,0.19677734375,-10.9755859375,0.0859375,-7.352941176470589,-171.35854341736695,-5.46218487394958
1.055,IMU0,0.24072265625,-10.96826171875,0.14111328125,-3.2913165266106446,-174.50980392156865,-4.341736694677872
1.065,IMU0,0.2373046875,-10.96435546875,0.11181640625,-10.854341736694678,-176.6106442577031,-5.5322128851540615
1.075,IMU0,0.24951171875,-10.94482421875,0.15673828125,-8.683473389355743,-177.03081232492997,-8.403361344537815
1.085,IMU0,0.2021484375,-10.92578125,0.1455078125,-3.151260504201681,-176.9607843137255,-9.593837535014005
1.095,IMU0,0.25537109375,-10.93310546875,0.1435546875,0.9103641456582633,-175.7703081232493,-10.504201680672269
1.105,IMU0,0.2431640625,-10.923828125,0.13232421875,3.2913165266106446,-177.66106442577032,-13.305322128851541
1.115,IMU0,0.2177734375,-10.8916015625,0.15185546875,-4.901960784313726,-178.50140056022408,-15.966386554621849
1.125,IMU0,0.22119140625,-10.88623046875,0.1259765625,-2.5210084033613445,-175.49019607843138,-16.666666666666668
1.135,IMU0,0.23193359375,-10.8720703125,0.12158203125,4.481792717086835,-175.49019607843138,-17.43697478991597
1.145,IMU0,0.22802734375,-10.85595703125,0.1318359375,0.9103641456582633,-175.28011204481794,-19.607843137254903
1.155,IMU0,0.20166015625,-10.83984375,0.1484375,-2.5210084033613445,-171.9887955182073,-20.238095238095237
1.165,IMU0,0.21533203125,-10.8369140625,0.13671875,6.022408963585434,-172.96918767507003,-19.88795518207283
1.175,IMU0,0.19775390625,-10.81103515625,0.14892578125,5.8123249299719895,-178.78151260504202,-21.568627450980394
1.185,IMU0,0.18994140625,-10.78466796875,0.140625,15.966386554621849,-178.57142857142858,-20.65826330532213
1.195,IMU0,0.17431640625,-10.77734375,0.11669921875,5.8123249299719895,-180.53221288515408,-19.607843137254903
1.205,IMU0,0.1904296875,-10.771484375,0.1484375,9.453781512605042,-178.0812324929972,-19.11764705882353
1.215,IMU0,0.16552734375,-10.76953125,0.09619140625,-2.9411764705882355,-178.921568627451,-18.907563025210084
1.225,IMU0,0.1669921875,-10.7841796875,0.11767578125,7.633053221288516,-180.25210084033614,-17.366946778711487
1.235,IMU0,0.1552734375,-10.76806640625,0.1142578125,5.602240896358544,-184.94397759103643,-15.476190476190476
1.245,IMU0,0.1689453125,-10.77294921875,0.111328125,13.375350140056023,-190.68627450980392,-14.145658263305323
1.255,IMU0,0.14599609375,-10.7724609375,0.095703125,11.69467787114846,-188.23529411764707,-13.65546218487395
1.265,IMU0,0.17724609375,-10.73681640625,0.12890625,5.9523809523809526,-188.0952380952381,-11.904761904761905
1.275,IMU0,0.16015625,-10.73095703125,0.11083984375,12.184873949579833,-185.71428571428572,-8.893557422969188
1.285,IMU0,0.1689453125,-10.736328125,0.11572265625,-7.072829131652662,-186.69467787114846,-6.512605042016807
1.295,IMU0,0.18701171875,-10.72802734375,0.1123046875,6.022408963585434,-185.7843137254902,-5.9523809523809526
1.305,IMU0,0.1953125,-10.71533203125,0.140625,1.6106442577030813,-191.45658263305322,-5.042016806722689
1.315,IMU0,0.15966796875,-10.701171875,0.1162109375,15.616246498599441,-190.0560224089636,-3.2212885154061626
1.325,IMU0,0.20703125,-10.70458984375,0.1337890625,-7.703081232492997,-177.7310924369748,-3.361344537815126
1.335,IMU0,0.20654296875,-10.69287109375,0.12109375,4.271708683473389,-181.30252100840337,-4.551820728291316
1.345,IMU0,0.18017578125,-10.6875,0.1171875,17.717086834733895,-179.83193277310926,-3.991596638655462
1.355,IMU0,0.2158203125,-10.703125,0.14697265625,7.142857142857143,-179.76190476190476,-3.9215686274509807
1.365,IMU0,0.22412109375,-10.697265625,0.123046875,0.9803921568627452,-182.49299719887955,-6.23249299719888
1.375,IMU0,0.18798828125,-10.68896484375,0.11279296875,2.380952380952381,-180.67226890756302,-7.282913165266106
1.385,IMU0,0.203125,-10.6689453125,0.1416015625,1.8907563025210086,-180.0420168067227,-6.792717086834735
1.395,IMU0,0.2490234375,-10.67578125,0.1552734375,16.80672268907563,-179.83193277310926,-7.352941176470589
1.405,IMU0,0.20751953125,-10.677734375,0.11767578125,14.285714285714286,-176.1904761904762,-10.084033613445378
1.415,IMU0,0.22412109375,-10.650390625,0.08447265625,4.761904761904762,-173.9495798319328,-11.414565826330533
1.425,IMU0,0.2099609375,-10.65380859375,0.10400390625,4.901960784313726,-165.54621848739495,-11.064425770308123
1.435,IMU0,0.2216796875,-10.65625,0.107421875,0.0700280112044818,-167.0168067226891,-13.305322128851541
1.445,IMU0,0.16064453125,-10.6298828125,0.08154296875,11.484593837535014,-168.4173669467787,-14.215686274509805
1.455,IMU0,0.1806640625,-10.625,0.1240234375,-3.2913165266106446,-163.02521008403363,-14.215686274509805
1.465,IMU0,0.2001953125,-10.6201171875,0.08935546875,-3.5014005602240896,-168.55742296918768,-12.675070028011206
1.475,IMU0,0.1455078125,-10.62744140625,0.06494140625,-12.394957983193278,-168.8375350140056,-12.044817927170868
1.485,IMU0,0.21044921875,-10.60205078125,0.115234375,-9.38375350140056,-168.1372549019608,-10.784313725490197
1.495,IMU0,0.1357421875,-10.59521484375,0.07763671875,10.784313725490197,-181.44257703081234,-8.333333333333334
1.505,IMU0,0.15087890625,-10.57275390625,0.1298828125,0.350140056022409,-174.57983193277312,-7.282913165266106
1.515,IMU0,0.19287109375,-10.55322265625,0.09033203125,-8.543417366946779,-163.72549019607843,-5.742296918767507
1.525,IMU0,0.17626953125,-10.5498046875,0.08544921875,3.641456582633053,-167.08683473389357,-5.042016806722689
1.535,IMU0,0.169921875,-10.533203125,0.091796875,2.3109243697478994,-174.92997198879553,-3.151260504201681
1.545,IMU0,0.1826171875,-10.50634765625,0.11376953125,-3.431372549019608,-166.66666666666669,-2.5210084033613445
1.555,IMU0,0.19921875,-10.5078125,0.0966796875,16.246498599439775,-166.38655462184875,-1.9607843137254903
1.565,IMU0,0.18603515625,-10.4912109375,0.091796875,-3.8515406162464987,-156.44257703081234,-1.7507002801120448
1.575,IMU0,0.185546875,-10.466796875,0.091796875,-10.224089635854343,-143.27731092436974,-1.8207282913165266
1.585,IMU0,0.2001953125,-10.48291015625,0.07421875,1.680672268907563,-134.94397759103643,-3.5714285714285716
1.595,IMU0,0.1953125,-10.48193359375,0.06494140625,1.5406162464985995,-134.03361344537817,-3.641456582633053
1.605,IMU0,0.18310546875,-10.4326171875,0.07177734375,20.938375350140056,-115.82633053221289,-4.621848739495799
1.615,IMU0,0.20654296875,-10.376953125,0.095703125,32.212885154061624,-83.96358543417368,-5.322128851540617
1.625,IMU0,0.19873046875,-10.2041015625,0.056640625,3.011204481792717,-75.35014005602241,-7.212885154061625
1.635,IMU0,0.166015625,-9.88427734375,0.05126953125,11.69467787114846,-90.12605042016807,-8.543417366946779
1.645,IMU0,0.18408203125,-9.52490234375,0.08544921875,2.5210084033613445,-89.91596638655463,-9.593837535014005
1.655,IMU0,0.162109375,-9.162109375,0.06005859375,1.9607843137254903,-85.92436974789916,-9.803921568627452
1.665,IMU0,0.1357421875,-8.876953125,0.0341796875,11.484593837535014,-82.21288515406162,-10.434173669467787
1.675,IMU0,0.13134765625,-8.57177734375,0.126953125,21.35854341736695,-77.80112044817928,-9.873949579831933
1.685,IMU0,0.126953125,-8.1865234375,0.0341796875,35.15406162464986,-78.0812324929972,-9.453781512605042
1.695,IMU0,0.126953125,-7.83544921875,0.05615234375,15.756302521008404,-69.88795518207283,-9.943977591036415
1.705,IMU0,0.10791015625,-7.484375,0.0693359375,3.9215686274509807,-50.70028011204482,-8.403361344537815
1.715,IMU0,0.1103515625,-6.78857421875,0.08154296875,11.624649859943979,-37.11484593837535,-7.352941176470589
1.725,IMU0,0.0849609375,-5.87451171875,0.0693359375,5.882352941176471,-92.50700280112045,-5.6722689075630255
1.735,IMU0,0.0537109375,-4.89501953125,0.0400390625,14.985994397759104,-114.70588235294119,-3.9215686274509807
1.745,IMU0,0.0458984375,-3.62353515625,0.07080078125,-1.2605042016806722,-116.24649859943978,-3.711484593837535
1.755,IMU0,0.02685546875,-2.3896484375,0.0625,-27.100840336134453,-125.70028011204482,-1.680672268907563
1.765,IMU0,0.033203125,-1.44091796875,0.0712890625,-28.711484593837536,-96.07843137254902,-1.2605042016806722
1.775,IMU0,0.00390625,-0.69384765625,0.068359375,7.002801120448179,-59.313725490196084,-1.680672268907563
1.785,IMU0,-0.017578125,-0.09130859375,0.0927734375,6.442577030812325,-111.1344537815126,-2.030812324929972
1.795,IMU0,-0.0126953125,0.3994140625,0.072265625,-10.364145658263306,-118.62745098039217,-2.030812324929972
1.805,IMU0,-0.0419921875,1.05029296875,0.04736328125,-13.095238095238097,-74.43977591036415,-3.711484593837535
1.815,IMU0,-0.02490234375,1.23388671875,0.068359375,-7.282913165266106,-48.109243697478995,-3.011204481792717
1.825,IMU0,-0.0224609375,1.3408203125,0.06787109375,1.5406162464985995,-78.01120448179272,-2.030812324929972
1.835,IMU0,-0.02001953125,1.42333984375,0.14794921875,-4.621848739495799,-66.24649859943978,-5.6722689075630255
1.845,IMU0,0.05859375,1.49951171875,0.2177734375,-15.126050420168069,-34.38375350140056,-7.072829131652662
1.855,IMU0,0.00537109375,1.6484375,0.17724609375,-20.58823529411765,-54.27170868347339,-9.033613445378151
1.865,IMU0,-0.04736328125,1.6650390625,0.1826171875,30.602240896358545,-51.05042016806723,-7.563025210084034
1.875,IMU0,-0.0830078125,1.68359375,0.1904296875,-10.57422969187675,-57.07282913165266,-6.0924369747899165
1.885,IMU0,-0.0234375,1.69873046875,0.20654296875,-4.901960784313726,-63.51540616246499,-2.801120448179272
1.895,IMU0,-0.02001953125,1.6904296875,0.2119140625,-10.014005602240896,-55.74229691876751,-1.2605042016806722
1.905,IMU0,-0.00634765625,1.68798828125,0.23291015625,11.974789915966387,-61.41456582633054,-1.4705882352941178
1.915,IMU0,-0.0107421875,1.69677734375,0.2294921875,-22.338935574229694,-59.103641456582636,-2.030812324929972
1.925,IMU0,-0.0185546875,1.68798828125,0.3056640625,-9.803921568627452,-20.448179271708685,-1.2605042016806722
1.935,IMU0,-0.00439453125,1.66748046875,0.28271484375,2.5210084033613445,-19.327731092436977,0.5602240896358543
1.945,IMU0,-0.0009765625,1.67333984375,0.2958984375,14.915966386554622,-39.70588235294118,-0.2801120448179272
1.955,IMU0,0.00390625,1.65380859375,0.2939453125,-8.473389355742297,-37.254901960784316,0.5602240896358543
1.965,IMU0,0.02099609375,1.650390625,0.33544921875,30.88235294117647,-52.38095238095239,-0.1400560224089636
1.975,IMU0,-0.00390625,1.638671875,0.287109375,-16.106442577030812,-42.08683473389356,0.2801120448179272
1.985,IMU0,0.0068359375,1.6220703125,0.28955078125,1.2605042016806722,-38.655462184873954,1.1204481792717087
1.995,IMU0,0.00048828125,1.6162109375,0.287109375,10.364145658263306,-34.66386554621849,0.6302521008403361
2.005,IMU0,0.029296875,1.6103515625,0.29736328125,24.299719887955185,-42.787114845938376,1.050420168067227
2.015,IMU0,0.02587890625,1.61328125,0.31396484375,15.476190476190476,-33.05322128851541,-0.0700280112044818
2.025,IMU0,0.037109375,1.60888671875,0.322265625,1.6106442577030813,-28.36134453781513,-0.1400560224089636
2.035,IMU0,0.01611328125,1.603515625,0.28759765625,6.652661064425771,-37.04481792717087,-0.1400560224089636
2.045,IMU0,0.04248046875,1.5986328125,0.30419921875,30.88235294117647,-42.92717086834734,0.700280112044818
2.055,IMU0,0.01025390625,1.59765625,0.28076171875,-2.100840336134454,-29.481792717086837,-0.8403361344537815
2.065,IMU0,0.0478515625,1.59912109375,0.3056640625,-7.843137254901961,-35.85434173669468,-1.1904761904761905
2.075,IMU0,0.02197265625,1.603515625,0.29052734375,0.6302521008403361,-36.134453781512605,-0.21008403361344538
2.085,IMU0,0.02197265625,1.5888671875,0.27734375,8.19327731092437,-43.69747899159664,-0.1400560224089636
2.095,IMU0,0.04296875,1.591796875,0.25830078125,-10.784313725490197,-25.630252100840337,-1.7507002801120448
2.105,IMU0,0.0185546875,1.576171875,0.26904296875,5.882352941176471,-28.991596638655462,-2.100840336134454
2.115,IMU0,0.05029296875,1.5869140625,0.3076171875,7.002801120448179,-28.8515406162465,-2.2408963585434174
2.125,IMU0,0.0087890625,1.56640625,0.2978515625,4.761904761904762,-33.82352941176471,-2.030812324929972
2.135,IMU0,-0.00390625,1.572265625,0.27685546875,-5.742296918767507,-11.134453781512606,-3.431372549019608
2.145,IMU0,-0.0068359375,1.58203125,0.27392578125,-0.9803921568627452,-4.411764705882353,-2.73109243697479
2.155,IMU0,0.02685546875,1.56787109375,0.279296875,-3.9215686274509807,-25.35014005602241,-2.73109243697479
2.165,IMU0,-0.0009765625,1.57470703125,0.2431640625,-21.1484593837535,-32.00280112044818,-2.450980392156863
2.175,IMU0,-0.00048828125,1.5908203125,0.2880859375,6.792717086834735,-44.81792717086835,-2.100840336134454
2.185,IMU0,-0.00341796875,1.57568359375,0.27880859375,6.302521008403362,-43.27731092436975,-2.380952380952381
2.195,IMU0,0.00927734375,1.5693359375,0.29248046875,2.73109243697479,-35.294117647058826,-2.450980392156863
2.205,IMU0,0.0078125,1.58447265625,0.25732421875,21.07843137254902,-36.34453781512605,-0.5602240896358543
2.215,IMU0,0.0283203125,1.6259765625,0.3076171875,12.745098039215687,-41.036414565826334,-0.6302521008403361
2.225,IMU0,0.03125,1.59228515625,0.291015625,31.022408963585434,-20.518207282913167,-0.700280112044818
2.235,IMU0,-0.00341796875,1.60205078125,0.24609375,6.442577030812325,-41.66666666666667,-0.7703081232492998
2.245,IMU0,0.03955078125,1.5615234375,0.3046875,-3.011204481792717,-59.66386554621849,-0.4901960784313726
2.255,IMU0,0.01025390625,1.55322265625,0.23681640625,6.302521008403362,-43.977591036414566,-1.050420168067227
2.265,IMU0,0.02734375,1.5439453125,0.28955078125,10.154061624649861,-62.53501400560224,-1.1204481792717087
2.275,IMU0,0.0380859375,1.4501953125,0.26318359375,8.263305322128852,-76.12044817927172,-0.9103641456582633
2.285,IMU0,0.025390625,1.4296875,0.23095703125,1.400560224089636,-71.77871148459384,-2.170868347338936
2.295,IMU0,0.04052734375,1.37060546875,0.26171875,23.38935574229692,-65.12605042016807,-1.9607843137254903
2.305,IMU0,0.03369140625,1.32080078125,0.26123046875,-6.932773109243698,-55.67226890756303,-1.7507002801120448
2.315,IMU0,0.01318359375,1.3291015625,0.24267578125,0.700280112044818,-64.14565826330532,-1.1904761904761905
2.325,IMU0,0.02099609375,1.306640625,0.2509765625,-2.9411764705882355,-48.529411764705884,-2.73109243697479
2.335,IMU0,0.05029296875,1.330078125,0.287109375,-19.677871148459385,-41.31652661064426,-3.2913165266106446
2.345,IMU0,0.0400390625,1.30517578125,0.24365234375,-1.8907563025210086,-40.19607843137255,-1.8907563025210086
2.355,IMU0,0.0361328125,1.34228515625,0.2734375,3.9215686274509807,-49.719887955182074,-2.450980392156863
2.365,IMU0,0.0107421875,1.30126953125,0.26513671875,-20.65826330532213,-38.095238095238095,-1.400560224089636
2.375,IMU0,0.09765625,1.34375,0.24609375,-5.6722689075630255,-32.63305322128852,-2.100840336134454
2.385,IMU0,0.00146484375,1.31005859375,0.263671875,-9.803921568627452,-30.602240896358545,-0.9103641456582633
2.395,IMU0,0.05029296875,1.314453125,0.27978515625,-14.775910364145659,-34.173669467787114,-2.450980392156863
2.405,IMU0,0.01513671875,1.29736328125,0.21630859375,12.53501400560224,-41.31652661064426,-1.4705882352941178
2.415,IMU0,0.017578125,1.259765625,0.25634765625,15.616246498599441,-49.85994397759104,-1.2605042016806722
2.425,IMU0,0.06982421875,1.29150390625,0.28955078125,-2.100840336134454,-59.66386554621849,-0.700280112044818
2.435,IMU0,0.09033203125,1.28466796875,0.26806640625,1.4705882352941178,-50.63025210084034,-1.7507002801120448
2.445,IMU0,0.01025390625,1.25439453125,0.2392578125,18.907563025210084,-22.689075630252102,-1.6106442577030813
2.455,IMU0,0.04638671875,1.26318359375,0.23046875,-15.756302521008404,-33.61344537815126,-2.380952380952381
2.465,IMU0,0.0224609375,1.25244140625,0.26171875,-17.296918767507005,-43.55742296918768,-1.7507002801120448
2.475,IMU0,0.08203125,1.2236328125,0.24267578125,-17.15686274509804,-47.689075630252105,-0.7703081232492998
2.485,IMU0,0.0478515625,1.232421875,0.2607421875,-11.27450980392157,-28.781512605042018,-0.8403361344537815
2.495,IMU0,0.05908203125,1.25048828125,0.2177734375,-6.932773109243698,-23.87955182072829,-2.8711484593837535
2.505,IMU0,0.04443359375,1.22216796875,0.27685546875,-25.630252100840337,-23.73949579831933,-3.641456582633053
2.515,IMU0,0.0234375,1.2490234375,0.1953125,4.061624649859944,-37.53501400560224,-2.8711484593837535
2.525,IMU0,0.0810546875,1.2109375,0.2578125,20.168067226890756,-33.05322128851541,-2.6610644257703084
2.535,IMU0,0.0302734375,1.2265625,0.251953125,8.403361344537815,-35.57422969187675,-2.9411764705882355
2.545,IMU0,0.0634765625,1.22998046875,0.23388671875,-32.35294117647059,-31.442577030812327,-3.5014005602240896
2.555,IMU0,0.03955078125,1.21826171875,0.28857421875,-17.857142857142858,-42.7170868347339,-2.380952380952381
2.565,IMU0,0.044921875,1.20166015625,0.220703125,2.6610644257703084,-29.551820728291318,-1.2605042016806722
2.575,IMU0,0.07275390625,1.201171875,0.25390625,-11.27450980392157,-28.8515406162465,-2.6610644257703084
2.585,IMU0,0.00048828125,1.2236328125,0.26123046875,5.182072829131653,-40.96638655462185,-2.450980392156863
2.595,IMU0,0.09375,1.216796875,0.18017578125,-5.2521008403361344,-34.03361344537815,-3.151260504201681
2.605,IMU0,-0.017578125,1.19482421875,0.31201171875,-17.15686274509804,-21.568627450980394,-2.5910364145658265
2.615,IMU0,0.07666015625,1.2099609375,0.19970703125,-0.6302521008403361,-31.022408963585434,-1.2605042016806722
2.625,IMU0,0.05029296875,1.177734375,0.30224609375,17.086834733893557,-28.36134453781513,-1.1904761904761905
2.635,IMU0,0.05078125,1.18115234375,0.203125,21.008403361344538,-22.128851540616246,-2.5910364145658265
2.645,IMU0,0.0439453125,1.16259765625,0.27978515625,-3.361344537815126,-27.380952380952383,-1.8907563025210086
2.655,IMU0,0.0712890625,1.17041015625,0.24951171875,-15.756302521008404,-21.9187675070028,-1.1904761904761905
2.665,IMU0,0.01708984375,1.1630859375,0.177734375,-1.9607843137254903,-28.8515406162465,0.350140056022409
2.675,IMU0,0.095703125,1.1650390625,0.32568359375,-4.69187675070028,-36.484593837535016,-1.050420168067227
2.685,IMU0,0.0205078125,1.15234375,0.2158203125,5.392156862745098,-36.5546218487395,-0.21008403361344538
2.695,IMU0,0.0712890625,1.15869140625,0.22265625,-15.19607843137255,-16.73669467787115,-2.100840336134454
2.705,IMU0,0.021484375,1.1572265625,0.29052734375,12.044817927170868,-30.46218487394958,-1.4705882352941178
2.715,IMU0,0.06298828125,1.14892578125,0.197265625,-0.42016806722689076,-25.910364145658264,-1.400560224089636
2.725,IMU0,0.0859375,1.138671875,0.27783203125,-1.2605042016806722,-27.24089635854342,-1.3305322128851542
2.735,IMU0,0.01611328125,1.12255859375,0.1806640625,2.5210084033613445,-26.330532212885156,-1.1904761904761905
2.745,IMU0,0.08837890625,1.1435546875,0.31494140625,1.050420168067227,-24.50980392156863,-2.170868347338936
2.755,IMU0,0.09375,1.14111328125,0.263671875,-1.050420168067227,-34.59383753501401,-3.431372549019608
2.765,IMU0,0.03369140625,1.13818359375,0.25048828125,2.801120448179272,-21.9187675070028,-2.5910364145658265
2.775,IMU0,0.06494140625,1.16162109375,0.28173828125,-5.9523809523809526,-27.941176470588236,-3.781512605042017
2.785,IMU0,0.0595703125,1.130859375,0.24169921875,-9.033613445378151,-24.299719887955185,-2.6610644257703084
2.795,IMU0,0.02099609375,1.10205078125,0.234375,-0.21008403361344538,-21.288515406162468,-1.4705882352941178
2.805,IMU0,0.103515625,1.13623046875,0.28466796875,-15.756302521008404,-32.63305322128852,-1.6106442577030813
2.815,IMU0,0.03076171875,1.14453125,0.29248046875,-7.843137254901961,-26.260504201680675,-1.680672268907563
2.825,IMU0,0.05029296875,1.14892578125,0.25732421875,-7.492997198879552,-28.011204481792717,-3.2913165266106446
2.835,IMU0,0.0849609375,1.1298828125,0.19482421875,-6.652661064425771,-25.840336134453782,-2.450980392156863
2.845,IMU0,0.013671875,1.10205078125,0.3017578125,13.445378151260504,-27.380952380952383,-2.2408963585434174
2.855,IMU0,0.07470703125,1.12841796875,0.24951171875,4.201680672268908,-19.257703081232496,-2.9411764705882355
2.865,IMU0,0.0361328125,1.10302734375,0.23876953125,5.5322128851540615,-38.23529411764706,-2.030812324929972
2.875,IMU0,0.10205078125,1.0849609375,0.2451171875,-2.100840336134454,-44.81792717086835,-3.011204481792717
2.885,IMU0,0.02880859375,1.1015625,0.26318359375,-4.551820728291316,-37.885154061624654,-3.711484593837535
2.895,IMU0,0.01806640625,1.12109375,0.2998046875,0.8403361344537815,-37.11484593837535,-3.2212885154061626
2.905,IMU0,0.0419921875,1.1015625,0.2529296875,-11.344537815126051,-39.35574229691877,-1.050420168067227
2.915,IMU0,0.0458984375,1.10205078125,0.25048828125,15.476190476190476,-42.436974789915965,0.6302521008403361
2.925,IMU0,0.05029296875,1.08544921875,0.23095703125,9.033613445378151,-34.87394957983194,0.0700280112044818
2.935,IMU0,0.0283203125,1.09033203125,0.37109375,2.5910364145658265,-42.997198879551824,0.42016806722689076
2.945,IMU0,0.091796875,1.09228515625,0.15771484375,32.142857142857146,-57.00280112044818,0.42016806722689076
2.955,IMU0,-0.0087890625,1.0830078125,0.3466796875,14.145658263305323,-51.610644257703086,0.42016806722689076
2.965,IMU0,0.06591796875,1.10498046875,0.2392578125,-4.69187675070028,-57.913165266106446,1.8907563025210086
2.975,IMU0,0.052734375,1.09228515625,0.33544921875,-0.350140056022409,-51.19047619047619,3.081232492997199
2.985,IMU0,0.08740234375,1.07666015625,0.21044921875,-0.700280112044818,-53.43137254901961,1.5406162464985995
2.995,IMU0,0.091796875,1.0478515625,0.22509765625,-18.627450980392158,-47.75910364145658,-0.0700280112044818
3.005,IMU0,0.01806640625,1.07177734375,0.29638671875,-3.8515406162464987,-46.42857142857143,0.6302521008403361
3.015,IMU0,0.04345703125,1.06884765625,0.26220703125,26.89075630252101,-56.44257703081233,2.100840336134454
3.025,IMU0,0.11279296875,1.05517578125,0.2099609375,9.243697478991598,-65.47619047619048,1.680672268907563
3.035,IMU0,0.04248046875,1.0283203125,0.23681640625,10.434173669467787,-56.72268907563026,0.8403361344537815
3.045,IMU0,0.09326171875,1.06298828125,0.28515625,11.484593837535014,-58.753501400560225,0.0
3.055,IMU0,0.03564453125,1.05517578125,0.3046875,-8.053221288515406,-57.983193277310924,0.1400560224089636
3.065,IMU0,0.06982421875,1.0576171875,0.25830078125,2.801120448179272,-57.07282913165266,-0.0700280112044818
3.075,IMU0,0.11181640625,1.060546875,0.23046875,-9.173669467787116,-64.70588235294117,-0.9803921568627452
3.085,IMU0,0.0859375,1.052734375,0.28173828125,8.543417366946779,-68.69747899159664,-1.1204481792717087
3.095,IMU0,0.07958984375,1.03466796875,0.2666015625,23.249299719887958,-56.23249299719888,-0.5602240896358543
3.105,IMU0,0.1220703125,1.05859375,0.2509765625,-22.058823529411764,-58.19327731092437,-2.3109243697478994
3.115,IMU0,0.02783203125,1.04296875,0.2099609375,4.621848739495799,-64.77591036414566,-2.5910364145658265
3.125,IMU0,0.1298828125,1.05615234375,0.2744140625,-4.621848739495799,-69.46778711484595,-4.061624649859944
3.135,IMU0,0.072265625,1.0322265625,0.23095703125,-8.053221288515406,-66.66666666666667,-5.042016806722689
3.145,IMU0,0.11376953125,1.0361328125,0.27734375,7.212885154061625,-64.91596638655463,-5.2521008403361344
3.155,IMU0,0.095703125,1.033203125,0.21923828125,-19.11764705882353,-55.74229691876751,-4.971988795518207
3.165,IMU0,0.046875,1.015625,0.29150390625,-20.798319327731093,-59.59383753501401,-4.201680672268908
3.175,IMU0,0.134765625,1.02734375,0.30029296875,2.73109243697479,-71.07843137254902,-3.781512605042017
3.185,IMU0,0.04443359375,1.02001953125,0.21435546875,16.526610644257705,-75.07002801120449,-2.8711484593837535
3.195,IMU0,0.12451171875,1.0263671875,0.27490234375,18.907563025210084,-76.9607843137255,-4.971988795518207
3.205,IMU0,0.04931640625,1.03515625,0.205078125,-11.624649859943979,-75.14005602240897,-4.271708683473389
3.215,IMU0,0.0751953125,1.02294921875,0.3076171875,8.893557422969188,-83.12324929971989,-4.411764705882353
3.225,IMU0,0.03515625,1.00244140625,0.23046875,7.492997198879552,-79.34173669467788,-2.2408963585434174
3.235,IMU0,0.10791015625,1.01708984375,0.31005859375,-6.792717086834735,-80.53221288515407,-2.450980392156863
3.245,IMU0,0.0634765625,0.99853515625,0.1904296875,-7.352941176470589,-78.71148459383754,-1.8907563025210086
3.255,IMU0,0.10791015625,0.9970703125,0.2802734375,-10.784313725490197,-78.92156862745098,-3.2913165266106446
3.265,IMU0,0.03662109375,1.02978515625,0.2490234375,-7.913165266106443,-68.97759103641457,-2.3109243697478994
3.275,IMU0,0.041015625,1.009765625,0.24609375,-10.644257703081234,-80.11204481792717,-0.6302521008403361
3.285,IMU0,0.11376953125,0.99560546875,0.19921875,-1.7507002801120448,-84.593837535014,-0.1400560224089636
3.295,IMU0,0.06396484375,0.98095703125,0.2353515625,-1.4705882352941178,-82.14285714285715,-2.100840336134454
3.305,IMU0,0.1044921875,0.994140625,0.25048828125,6.792717086834735,-82.98319327731093,-3.9215686274509807
3.315,IMU0,0.0146484375,0.984375,0.2275390625,-5.2521008403361344,-77.03081232492998,-2.801120448179272
3.325,IMU0,0.12841796875,0.9892578125,0.28857421875,-4.481792717086835,-76.26050420168067,-1.8207282913165266
3.335,IMU0,0.10693359375,0.9794921875,0.17138671875,-2.5910364145658265,-78.22128851540617,-1.1904761904761905
3.345,IMU0,0.05419921875,0.96923828125,0.2744140625,-6.862745098039216,-73.03921568627452,-2.6610644257703084
3.355,IMU0,0.0966796875,0.98193359375,0.21240234375,-15.126050420168069,-69.25770308123249,-4.201680672268908
3.365,IMU0,0.052734375,0.98828125,0.24853515625,-0.9803921568627452,-75.91036414565826,-4.061624649859944
3.375,IMU0,0.05224609375,0.9677734375,0.18310546875,3.431372549019608,-80.95238095238095,-3.081232492997199
3.385,IMU0,0.11376953125,0.9541015625,0.24169921875,6.0924369747899165,-81.51260504201682,-4.271708683473389
3.395,IMU0,0.04052734375,0.97705078125,0.1826171875,22.268907563025213,-86.90476190476191,-5.182072829131653
3.405,IMU0,0.064453125,0.96337890625,0.185546875,6.792717086834735,-81.44257703081233,-3.991596638655462
3.415,IMU0,0.03515625,0.955078125,0.1962890625,-2.8711484593837535,-75.0,-2.73109243697479
3.425,IMU0,0.111328125,0.958984375,0.21923828125,-13.65546218487395,-78.15126050420169,-3.8515406162464987
3.435,IMU0,0.0703125,0.94775390625,0.15087890625,-5.322128851540617,-75.63025210084034,-5.9523809523809526
3.445,IMU0,0.1044921875,0.95751953125,0.2587890625,-5.2521008403361344,-68.76750700280112,-8.753501400560225
3.455,IMU0,0.02099609375,0.95166015625,0.16650390625,-7.983193277310924,-76.12044817927172,-6.862745098039216
3.465,IMU0,0.0556640625,0.9736328125,0.24658203125,-2.170868347338936,-84.38375350140056,-5.2521008403361344
3.475,IMU0,0.07275390625,0.95166015625,0.2431640625,-14.285714285714286,-88.30532212885154,-2.5210084033613445
3.485,IMU0,0.08837890625,0.94091796875,0.1728515625,-11.764705882352942,-85.29411764705883,-4.551820728291316
3.495,IMU0,0.07763671875,0.94140625,0.21142578125,-12.114845938375352,-80.74229691876751,-6.582633053221289
3.505,IMU0,0.03466796875,0.958984375,0.29052734375,-4.411764705882353,-81.02240896358543,-6.162464985994398
3.515,IMU0,0.0654296875,0.96923828125,0.20361328125,5.46218487394958,-89.77591036414566,-5.2521008403361344
3.525,IMU0,0.0400390625,0.93115234375,0.205078125,-15.056022408963585,-93.69747899159664,-2.9411764705882355
3.535,IMU0,0.1083984375,0.94580078125,0.2265625,-0.2801120448179272,-93.0672268907563,-3.5714285714285716
3.545,IMU0,0.01806640625,0.931640625,0.2060546875,-1.2605042016806722,-86.9747899159664,-4.551820728291316
3.555,IMU0,0.0546875,0.94189453125,0.2587890625,1.2605042016806722,-92.08683473389357,-4.901960784313726
3.565,IMU0,0.046875,0.9267578125,0.23681640625,11.204481792717088,-89.70588235294117,-3.361344537815126
3.575,IMU0,0.05908203125,0.92041015625,0.17919921875,18.207282913165265,-95.51820728291317,-3.2913165266106446
3.585,IMU0,0.0771484375,0.9365234375,0.25244140625,25.0,-96.42857142857143,-3.641456582633053
3.595,IMU0,0.021484375,0.93896484375,0.255859375,-2.3109243697478994,-90.89635854341738,-3.8515406162464987
3.605,IMU0,0.044921875,0.9267578125,0.20654296875,-29.6218487394958,-91.24649859943978,-3.151260504201681
3.615,IMU0,0.08447265625,0.921875,0.23974609375,6.652661064425771,-92.78711484593838,-3.641456582633053
3.625,IMU0,0.037109375,0.89111328125,0.23291015625,-13.095238095238097,-100.98039215686275,-4.481792717086835
3.635,IMU0,0.0625,0.92919921875,0.1904296875,7.492997198879552,-95.65826330532214,-6.0924369747899165
3.645,IMU0,0.02783203125,0.90576171875,0.27001953125,7.212885154061625,-75.0,-6.162464985994398
3.655,IMU0,0.04931640625,0.90771484375,0.16259765625,0.6302521008403361,-91.87675070028011,-5.042016806722689
3.665,IMU0,0.0771484375,0.8994140625,0.25439453125,-7.913165266106443,-96.42857142857143,-5.2521008403361344
3.675,IMU0,0.0771484375,0.89794921875,0.14453125,-4.271708683473389,-101.68067226890757,-6.652661064425771
3.685,IMU0,-0.00390625,0.91259765625,0.27880859375,-1.1204481792717087,-106.44257703081233,-6.0924369747899165
3.695,IMU0,0.07763671875,0.8955078125,0.171875,9.593837535014005,-96.98879551820728,-5.6722689075630255
3.705,IMU0,0.04833984375,0.8837890625,0.16845703125,0.7703081232492998,-101.26050420168067,-6.302521008403362
3.715,IMU0,0.0849609375,0.9013671875,0.19970703125,-6.582633053221289,-103.36134453781513,-6.372549019607844
3.725,IMU0,-0.00537109375,0.9140625,0.23486328125,0.0700280112044818,-104.06162464985995,-5.46218487394958
3.735,IMU0,0.109375,0.916015625,0.169921875,9.38375350140056,-110.08403361344538,-5.322128851540617
3.745,IMU0,0.02685546875,0.88232421875,0.13916015625,-0.350140056022409,-102.17086834733894,-4.201680672268908
3.755,IMU0,0.10107421875,0.89013671875,0.21630859375,-4.131652661064426,-104.76190476190477,-5.6722689075630255
3.765,IMU0,0.025390625,0.89208984375,0.2109375,6.652661064425771,-101.47058823529412,-4.481792717086835
3.775,IMU0,0.08349609375,0.88916015625,0.20849609375,5.8123249299719895,-102.73109243697479,-4.761904761904762
3.785,IMU0,0.0615234375,0.89501953125,0.2138671875,-8.893557422969188,-103.85154061624651,-4.551820728291316
3.795,IMU0,0.04052734375,0.8955078125,0.12548828125,8.263305322128852,-116.31652661064426,-4.831932773109244
3.805,IMU0,0.06396484375,0.89306640625,0.2978515625,-5.2521008403361344,-114.6358543417367,-5.882352941176471
3.815,IMU0,0.05322265625,0.8857421875,0.14208984375,-24.369747899159666,-111.62464985994399,-6.302521008403362
3.825,IMU0,0.06689453125,0.8955078125,0.26416015625,-0.1400560224089636,-110.64425770308124,-6.162464985994398
3.835,IMU0,0.04248046875,0.88427734375,0.15478515625,4.551820728291316,-105.3921568627451,-4.831932773109244
3.845,IMU0,0.0556640625,0.892578125,0.2353515625,2.2408963585434174,-113.65546218487395,-4.901960784313726
3.855,IMU0,0.1396484375,0.88720703125,0.1982421875,1.8207282913165266,-103.57142857142857,-5.182072829131653
3.865,IMU0,0.0087890625,0.88671875,0.265625,1.6106442577030813,-85.92436974789916,-5.882352941176471
3.875,IMU0,0.07080078125,0.8857421875,0.20263671875,0.700280112044818,-75.91036414565826,-6.0924369747899165
3.885,IMU0,0.07861328125,0.8857421875,0.1923828125,12.53501400560224,-104.06162464985995,-7.142857142857143
3.895,IMU0,0.00927734375,0.86669921875,0.267578125,4.481792717086835,-86.41456582633053,-6.862745098039216
3.905,IMU0,0.11669921875,0.87451171875,0.18212890625,0.9103641456582633,-107.28291316526611,-6.512605042016807
3.915,IMU0,0.01318359375,0.869140625,0.2568359375,-4.061624649859944,-109.38375350140056,-6.442577030812325
3.925,IMU0,0.1123046875,0.87841796875,0.17529296875,-5.882352941176471,-109.80392156862746,-7.282913165266106
3.935,IMU0,0.02685546875,0.841796875,0.2666015625,-3.2913165266106446,-114.07563025210085,-6.372549019607844
3.945,IMU0,0.05517578125,0.84521484375,0.1787109375,-9.173669467787116,-110.64425770308124,-6.792717086834735
3.955,IMU0,0.0537109375,0.8427734375,0.22998046875,2.380952380952381,-111.27450980392157,-7.352941176470589
3.965,IMU0,0.02294921875,0.83935546875,0.13037109375,0.700280112044818,-110.0140056022409,-6.722689075630252
3.975,IMU0,0.064453125,0.84033203125,0.2333984375,17.857142857142858,-113.02521008403362,-7.843137254901961
3.985,IMU0,0.013671875,0.83251953125,0.15966796875,10.294117647058824,-108.75350140056022,-7.913165266106443
3.995,IMU0,0.07275390625,0.8359375,0.16162109375,13.305322128851541,-113.44537815126051,-9.033613445378151
4.005,IMU0,-0.02294921875,0.85498046875,0.1787109375,7.703081232492997,-108.96358543417368,-8.053221288515406
4.015,IMU0,0.03515625,0.82861328125,0.2080078125,5.602240896358544,-112.04481792717087,-7.142857142857143
4.025,IMU0,0.0263671875,0.82861328125,0.111328125,11.064425770308123,-108.12324929971989,-7.843137254901961
4.035,IMU0,0.06103515625,0.83740234375,0.251953125,-2.380952380952381,-112.25490196078432,-8.61344537815126
4.045,IMU0,-0.02392578125,0.8388671875,0.14111328125,-3.081232492997199,-106.58263305322129,-6.722689075630252
4.055,IMU0,0.06494140625,0.84765625,0.20068359375,-7.072829131652662,-113.37535014005603,-5.6722689075630255
4.065,IMU0,0.01123046875,0.81005859375,0.10595703125,-6.792717086834735,-108.4733893557423,-5.112044817927171
4.075,IMU0,0.07958984375,0.8232421875,0.2333984375,-5.9523809523809526,-111.27450980392157,-6.372549019607844
4.085,IMU0,-0.01171875,0.82470703125,0.15673828125,-10.364145658263306,-108.19327731092437,-5.602240896358544
4.095,IMU0,0.0234375,0.81494140625,0.1494140625,6.582633053221289,-111.34453781512606,-4.901960784313726
4.105,IMU0,0.02783203125,0.80126953125,0.138671875,6.162464985994398,-113.02521008403362,-4.131652661064426
4.115,IMU0,0.04345703125,0.81201171875,0.15673828125,-5.8123249299719895,-105.0420168067227,-4.761904761904762
4.125,IMU0,0.05517578125,0.8232421875,0.1494140625,-3.2913165266106446,-107.49299719887955,-4.761904761904762
4.135,IMU0,-0.0400390625,0.8134765625,0.19140625,1.3305322128851542,-115.12605042016807,-2.73109243697479
4.145,IMU0,0.0830078125,0.81201171875,0.12109375,12.88515406162465,-107.14285714285715,-2.100840336134454
4.155,IMU0,0.0380859375,0.79833984375,0.1669921875,-1.1204481792717087,-107.77310924369749,-3.081232492997199
4.165,IMU0,0.06103515625,0.81201171875,0.1767578125,4.411764705882353,-98.94957983193278,-5.392156862745098
4.175,IMU0,0.0546875,0.8134765625,0.1982421875,8.61344537815126,-102.03081232492998,-5.8123249299719895
4.185,IMU0,-0.0009765625,0.81103515625,0.15283203125,2.2408963585434174,-104.55182072829132,-3.5714285714285716
4.195,IMU0,0.04833984375,0.80810546875,0.1572265625,-1.6106442577030813,-101.12044817927172,-3.011204481792717
4.205,IMU0,0.0791015625,0.78515625,0.1435546875,-0.700280112044818,-99.57983193277312,-3.151260504201681
4.215,IMU0,0.0546875,0.78369140625,0.19775390625,13.865546218487395,-97.54901960784314,-5.5322128851540615
4.225,IMU0,0.04443359375,0.79736328125,0.12548828125,-9.453781512605042,-94.95798319327731,-7.072829131652662
4.235,IMU0,0.021484375,0.80224609375,0.24072265625,-9.73389355742297,-103.64145658263305,-6.022408963585434
4.245,IMU0,0.03466796875,0.79052734375,0.08251953125,1.9607843137254903,-96.49859943977592,-4.061624649859944
4.255,IMU0,0.05078125,0.77783203125,0.21337890625,-1.9607843137254903,-97.61904761904762,-4.69187675070028
4.265,IMU0,0.12744140625,0.78271484375,0.154296875,8.19327731092437,-96.84873949579833,-6.162464985994398
4.275,IMU0,-0.01171875,0.802734375,0.171875,-2.3109243697478994,-90.61624649859944,-7.212885154061625
4.285,IMU0,0.0625,0.79248046875,0.142578125,-4.481792717086835,-92.22689075630252,-6.792717086834735
4.295,IMU0,0.01318359375,0.78759765625,0.1806640625,2.6610644257703084,-90.26610644257704,-4.761904761904762
4.305,IMU0,0.06201171875,0.78515625,0.1748046875,-2.170868347338936,-92.92717086834735,-4.341736694677872
4.315,IMU0,0.0625,0.77099609375,0.12548828125,5.46218487394958,-93.97759103641457,-6.022408963585434
4.325,IMU0,0.052734375,0.78857421875,0.13916015625,3.5714285714285716,-87.81512605042018,-8.263305322128852
4.335,IMU0,0.02783203125,0.78369140625,0.18505859375,-3.151260504201681,-91.9467787114846,-4.901960784313726
4.345,IMU0,0.0419921875,0.77197265625,0.0615234375,-0.350140056022409,-93.97759103641457,-3.2212885154061626
4.355,IMU0,0.0390625,0.76708984375,0.21533203125,2.73109243697479,-89.6358543417367,-3.9215686274509807
4.365,IMU0,0.0771484375,0.7763671875,0.15625,12.184873949579833,-91.03641456582633,-4.411764705882353
4.375,IMU0,0.00537109375,0.76611328125,0.14990234375,21.1484593837535,-91.31652661064426,-5.182072829131653
4.385,IMU0,0.033203125,0.7841796875,0.14892578125,8.333333333333334,-92.99719887955183,-4.901960784313726
4.395,IMU0,0.01513671875,0.76025390625,0.166015625,10.224089635854343,-94.11764705882354,-3.711484593837535
4.405,IMU0,0.0625,0.767578125,0.15478515625,-3.5014005602240896,-95.72829131652661,-3.991596638655462
4.415,IMU0,0.01904296875,0.763671875,0.18408203125,-9.173669467787116,-94.81792717086836,-4.971988795518207
4.425,IMU0,0.0361328125,0.76123046875,0.12841796875,-3.991596638655462,-103.15126050420169,-5.5322128851540615
4.435,IMU0,0.02978515625,0.7724609375,0.14794921875,7.633053221288516,-100.49019607843138,-5.042016806722689
4.445,IMU0,0.068359375,0.775390625,0.220703125,-0.2801120448179272,-91.31652661064426,-4.901960784313726
4.455,IMU0,-0.005859375,0.76611328125,0.091796875,1.7507002801120448,-93.69747899159664,-3.5014005602240896
4.465,IMU0,0.095703125,0.76318359375,0.193359375,9.73389355742297,-100.21008403361346,-4.271708683473389
4.475,IMU0,0.00927734375,0.7529296875,0.14111328125,3.011204481792717,-93.9075630252101,-3.711484593837535
4.485,IMU0,0.10009765625,0.7705078125,0.162109375,-13.515406162464986,-91.24649859943978,-5.5322128851540615
4.495,IMU0,-0.017578125,0.73974609375,0.1904296875,-3.2212885154061626,-94.88795518207283,-3.641456582633053
4.505,IMU0,0.076171875,0.744140625,0.15380859375,3.081232492997199,-96.63865546218487,-3.5014005602240896
4.515,IMU0,0.06494140625,0.759765625,0.138671875,13.23529411764706,-90.89635854341738,-4.201680672268908
4.525,IMU0,0.02490234375,0.74609375,0.1806640625,-1.1904761904761905,-92.64705882352942,-4.761904761904762
4.535,IMU0,0.07958984375,0.74462890625,0.0927734375,-7.633053221288516,-94.04761904761905,-5.9523809523809526
4.545,IMU0,-0.02783203125,0.74462890625,0.2099609375,-10.014005602240896,-93.9075630252101,-5.742296918767507
4.555,IMU0,0.1181640625,0.7529296875,0.11181640625,-4.131652661064426,-91.5266106442577,-5.6722689075630255
4.565,IMU0,0.0185546875,0.7451171875,0.19873046875,3.011204481792717,-92.57703081232494,-5.46218487394958
4.575,IMU0,0.03466796875,0.73388671875,0.07080078125,-4.69187675070028,-91.66666666666667,-5.2521008403361344
4.585,IMU0,0.04736328125,0.73583984375,0.19482421875,-19.39775910364146,-92.08683473389357,-4.621848739495799
4.595,IMU0,0.05322265625,0.7314453125,0.1171875,-9.033613445378151,-91.9467787114846,-4.481792717086835
4.605,IMU0,0.0595703125,0.73388671875,0.1572265625,2.380952380952381,-94.6078431372549,-6.0924369747899165
4.615,IMU0,0.02734375,0.72314453125,0.1201171875,14.775910364145659,-95.65826330532214,-6.792717086834735
4.625,IMU0,0.0126953125,0.73291015625,0.126953125,-1.8907563025210086,-95.0280112044818,-5.9523809523809526
4.635,IMU0,0.01708984375,0.7509765625,0.1845703125,3.361344537815126,-90.89635854341738,-4.411764705882353
4.645,IMU0,0.04736328125,0.7177734375,0.11962890625,-1.9607843137254903,-90.47619047619048,-5.112044817927171
4.655,IMU0,-0.0048828125,0.736328125,0.15283203125,5.602240896358544,-90.82633053221289,-6.372549019607844
4.665,IMU0,0.080078125,0.74853515625,0.16943359375,12.88515406162465,-95.86834733893558,-5.9523809523809526
4.675,IMU0,-0.0224609375,0.71875,0.130859375,11.414565826330533,-89.6358543417367,-4.761904761904762
4.685,IMU0,0.064453125,0.7294921875,0.1142578125,-4.061624649859944,-92.78711484593838,-4.901960784313726
4.695,IMU0,0.02197265625,0.712890625,0.1455078125,-8.753501400560225,-93.9075630252101,-4.761904761904762
4.705,IMU0,0.03125,0.73046875,0.16796875,-0.42016806722689076,-89.98599439775911,-5.742296918767507
4.715,IMU0,0.02783203125,0.732421875,0.1708984375,-10.154061624649861,-93.4873949579832,-5.602240896358544
4.725,IMU0,0.03125,0.72607421875,0.11181640625,-3.8515406162464987,-98.94957983193278,-5.5322128851540615
4.735,IMU0,0.00244140625,0.71728515625,0.1728515625,-9.663865546218489,-99.2296918767507,-4.901960784313726
4.745,IMU0,0.064453125,0.7197265625,0.11767578125,8.053221288515406,-95.86834733893558,-5.042016806722689
4.755,IMU0,0.02294921875,0.7216796875,0.14599609375,-4.621848739495799,-96.00840336134455,-5.042016806722689
4.765,IMU0,0.0361328125,0.7109375,0.15185546875,-3.011204481792717,-94.32773109243698,-4.69187675070028
4.775,IMU0,0.0390625,0.71875,0.1044921875,-2.5210084033613445,-99.78991596638656,-4.201680672268908
4.785,IMU0,-0.00048828125,0.712890625,0.1669921875,4.341736694677872,-98.109243697479,-3.781512605042017
4.795,IMU0,0.087890625,0.71630859375,0.15283203125,6.162464985994398,-97.40896358543418,-4.411764705882353
4.805,IMU0,0.009765625,0.69580078125,0.1552734375,3.5014005602240896,-93.97759103641457,-5.5322128851540615
4.815,IMU0,0.05029296875,0.71337890625,0.1337890625,-10.784313725490197,-96.00840336134455,-5.882352941176471
4.825,IMU0,0.0087890625,0.708984375,0.1357421875,-3.781512605042017,-102.24089635854342,-4.971988795518207
4.835,IMU0,0.041015625,0.70751953125,0.17529296875,8.823529411764707,-99.57983193277312,-4.621848739495799
4.845,IMU0,0.04443359375,0.70654296875,0.1103515625,-2.3109243697478994,-99.78991596638656,-5.042016806722689
4.855,IMU0,0.05517578125,0.68994140625,0.14404296875,-3.361344537815126,-99.2296918767507,-6.0924369747899165
4.865,IMU0,0.025390625,0.703125,0.10595703125,-10.854341736694678,-98.8795518207283,-6.022408963585434
4.875,IMU0,0.0146484375,0.7119140625,0.228515625,-1.5406162464985995,-100.21008403361346,-5.112044817927171
4.885,IMU0,0.06982421875,0.6904296875,0.10986328125,5.5322128851540615,-93.76750700280112,-4.481792717086835
4.895,IMU0,0.044921875,0.68505859375,0.11669921875,-2.5910364145658265,-97.6890756302521,-5.112044817927171
4.905,IMU0,0.060546875,0.70068359375,0.1513671875,-2.170868347338936,-96.49859943977592,-6.0924369747899165
4.915,IMU0,-0.0068359375,0.69482421875,0.13427734375,1.050420168067227,-97.75910364145659,-4.831932773109244
4.925,IMU0,0.0595703125,0.703125,0.16357421875,7.212885154061625,-97.05882352941177,-4.831932773109244
4.935,IMU0,0.046875,0.68701171875,0.10888671875,14.84593837535014,-96.70868347338936,-5.322128851540617
4.945,IMU0,0.04931640625,0.68359375,0.111328125,5.882352941176471,-100.84033613445379,-6.23249299719888
4.955,IMU0,0.04296875,0.6845703125,0.14794921875,2.73109243697479,-99.08963585434174,-6.792717086834735
4.965,IMU0,0.03173828125,0.6943359375,0.123046875,-7.773109243697479,-103.92156862745098,-4.69187675070028
4.975,IMU0,0.0615234375,0.67529296875,0.08251953125,-9.873949579831933,-109.45378151260505,-5.042016806722689
4.985,IMU0,0.08056640625,0.68310546875,0.11376953125,4.971988795518207,-107.3529411764706,-5.9523809523809526
4.995,IMU0,0.0068359375,0.6923828125,0.18115234375,-2.030812324929972,-105.53221288515407,-5.742296918767507
5.005,IMU0,0.09716796875,0.6767578125,0.07958984375,-3.5714285714285716,-110.78431372549021,-5.392156862745098
5.015,IMU0,0.0009765625,0.68212890625,0.1357421875,-0.7703081232492998,-111.69467787114847,-3.641456582633053
5.025,IMU0,0.13916015625,0.67578125,0.08203125,0.5602240896358543,-108.40336134453781,-4.201680672268908
5.035,IMU0,0.009765625,0.68359375,0.18603515625,7.002801120448179,-108.33333333333334,-4.761904761904762
5.045,IMU0,0.10009765625,0.67529296875,0.0751953125,4.271708683473389,-111.83473389355743,-5.182072829131653
5.055,IMU0,0.05224609375,0.67626953125,0.14599609375,-0.2801120448179272,-115.12605042016807,-4.481792717086835
5.065,IMU0,0.05322265625,0.67333984375,0.12744140625,2.801120448179272,-114.77591036414566,-3.991596638655462
5.075,IMU0,0.0673828125,0.67626953125,0.14013671875,-1.2605042016806722,-118.4873949579832,-3.5014005602240896
5.085,IMU0,0.0703125,0.67431640625,0.13525390625,7.913165266106443,-116.5266106442577,-4.341736694677872
5.095,IMU0,0.08154296875,0.6796875,0.10009765625,7.142857142857143,-117.15686274509804,-5.6722689075630255
5.105,IMU0,0.02880859375,0.67578125,0.11376953125,5.2521008403361344,-112.60504201680673,-6.162464985994398
5.115,IMU0,0.07275390625,0.67236328125,0.13427734375,2.3109243697478994,-116.10644257703082,-6.512605042016807
5.125,IMU0,0.056640625,0.662109375,0.17041015625,-1.6106442577030813,-111.06442577030813,-5.5322128851540615
5.135,IMU0,0.08447265625,0.6669921875,0.1279296875,5.8123249299719895,-116.10644257703082,-6.022408963585434
5.145,IMU0,0.06982421875,0.66162109375,0.1171875,-7.913165266106443,-114.56582633053222,-7.212885154061625
5.155,IMU0,0.05517578125,0.654296875,0.12451171875,-11.344537815126051,-109.80392156862746,-8.19327731092437
5.165,IMU0,0.04931640625,0.66845703125,0.15771484375,-9.873949579831933,-118.34733893557423,-8.19327731092437
5.175,IMU0,0.0673828125,0.666015625,0.13134765625,-8.543417366946779,-119.32773109243698,-8.333333333333334
5.185,IMU0,0.05859375,0.65087890625,0.12841796875,-13.935574229691877,-121.5686274509804,-8.19327731092437
5.195,IMU0,0.1171875,0.66552734375,0.14013671875,-15.476190476190476,-120.93837535014006,-8.683473389355743
5.205,IMU0,0.0087890625,0.66015625,0.15380859375,6.302521008403362,-119.18767507002802,-8.333333333333334
5.215,IMU0,0.07275390625,0.65283203125,0.13720703125,13.375350140056023,-118.4873949579832,-7.492997198879552
5.225,IMU0,0.02734375,0.63720703125,0.13916015625,10.434173669467787,-123.94957983193278,-6.582633053221289
5.235,IMU0,0.083984375,0.64306640625,0.1181640625,1.2605042016806722,-122.54901960784315,-8.753501400560225
5.245,IMU0,0.0537109375,0.63232421875,0.13671875,1.4705882352941178,-123.73949579831934,-9.803921568627452
5.255,IMU0,0.03466796875,0.64599609375,0.14794921875,-3.361344537815126,-121.42857142857143,-9.453781512605042
5.265,IMU0,0.01904296875,0.6494140625,0.1298828125,7.633053221288516,-119.18767507002802,-7.633053221288516
5.275,IMU0,0.0576171875,0.62744140625,0.12060546875,11.554621848739496,-120.44817927170868,-6.862745098039216
5.285,IMU0,0.04052734375,0.64697265625,0.16064453125,10.644257703081234,-124.36974789915966,-9.313725490196079
5.295,IMU0,0.02685546875,0.6533203125,0.09765625,8.263305322128852,-117.57703081232494,-9.523809523809524
5.305,IMU0,0.02001953125,0.6513671875,0.12890625,-2.3109243697478994,-123.45938375350141,-7.983193277310924
5.315,IMU0,0.0419921875,0.6328125,0.12060546875,2.5210084033613445,-121.98879551820728,-6.862745098039216
5.325,IMU0,0.07275390625,0.630859375,0.12353515625,5.602240896358544,-121.84873949579833,-6.862745098039216
5.335,IMU0,0.0546875,0.62548828125,0.119140625,11.764705882352942,-122.3389355742297,-8.053221288515406
5.345,IMU0,0.0390625,0.642578125,0.1376953125,16.596638655462186,-121.28851540616247,-8.053221288515406
5.355,IMU0,0.025390625,0.6357421875,0.11865234375,14.145658263305323,-124.6498599439776,-6.582633053221289
5.365,IMU0,0.02392578125,0.6376953125,0.0888671875,14.565826330532213,-124.29971988795519,-5.2521008403361344
5.375,IMU0,0.109375,0.64111328125,0.1279296875,4.901960784313726,-129.55182072829132,-5.742296918767507
5.385,IMU0,-0.017578125,0.63427734375,0.12841796875,-6.442577030812325,-120.72829131652662,-5.882352941176471
5.395,IMU0,0.08056640625,0.63525390625,0.13037109375,-5.602240896358544,-124.43977591036415,-6.302521008403362
5.405,IMU0,0.04296875,0.6318359375,0.11376953125,2.100840336134454,-124.6498599439776,-5.6722689075630255
5.415,IMU0,0.03271484375,0.62939453125,0.12939453125,3.151260504201681,-121.77871148459384,-5.182072829131653
5.425,IMU0,0.03759765625,0.62841796875,0.115234375,6.372549019607844,-127.66106442577032,-3.5014005602240896
5.435,IMU0,0.0712890625,0.62060546875,0.146484375,0.1400560224089636,-126.33053221288516,-3.5714285714285716
5.445,IMU0,0.064453125,0.6171875,0.07861328125,-9.173669467787116,-125.56022408963587,-5.182072829131653
5.455,IMU0,0.04150390625,0.6142578125,0.11474609375,-2.73109243697479,-124.78991596638656,-6.582633053221289
5.465,IMU0,0.0849609375,0.62744140625,0.12255859375,0.9803921568627452,-125.91036414565826,-6.022408963585434
5.475,IMU0,0.001953125,0.626953125,0.13720703125,0.2801120448179272,-124.78991596638656,-4.201680672268908
5.485,IMU0,0.0732421875,0.61669921875,0.109375,-1.3305322128851542,-125.0,-3.2913165266106446
5.495,IMU0,0.0869140625,0.6005859375,0.1357421875,-3.431372549019608,-131.5826330532213,-4.341736694677872
5.505,IMU0,0.044921875,0.60791015625,0.10498046875,0.8403361344537815,-129.06162464985994,-6.652661064425771
5.515,IMU0,0.04150390625,0.62060546875,0.15283203125,1.8907563025210086,-128.29131652661064,-7.492997198879552
5.525,IMU0,0.0458984375,0.6240234375,0.1025390625,-8.96358543417367,-125.63025210084034,-6.722689075630252
5.535,IMU0,0.04052734375,0.5986328125,0.11572265625,-10.294117647058824,-128.71148459383755,-5.602240896358544
5.545,IMU0,0.08203125,0.6123046875,0.11962890625,-6.512605042016807,-128.01120448179273,-6.23249299719888
5.555,IMU0,0.05322265625,0.607421875,0.11474609375,0.4901960784313726,-126.33053221288516,-7.212885154061625
5.565,IMU0,0.05810546875,0.60791015625,0.1328125,-2.5210084033613445,-123.45938375350141,-7.983193277310924
5.575,IMU0,0.0146484375,0.60205078125,0.07568359375,-9.313725490196079,-127.31092436974791,-7.703081232492997
5.585,IMU0,0.083984375,0.6123046875,0.1552734375,0.6302521008403361,-125.98039215686275,-7.492997198879552
5.595,IMU0,0.0810546875,0.5986328125,0.15234375,-4.411764705882353,-126.9607843137255,-8.333333333333334
5.605,IMU0,0.0458984375,0.60400390625,0.07958984375,-3.5014005602240896,-126.47058823529413,-8.96358543417367
5.615,IMU0,0.029296875,0.59619140625,0.14208984375,-0.700280112044818,-122.54901960784315,-8.683473389355743
5.625,IMU0,0.03662109375,0.611328125,0.13818359375,-0.5602240896358543,-126.05042016806723,-7.42296918767507
5.635,IMU0,0.06640625,0.6064453125,0.1162109375,5.322128851540617,-124.01960784313727,-7.142857142857143
5.645,IMU0,0.03369140625,0.58154296875,0.103515625,3.711484593837535,-125.84033613445379,-7.42296918767507
5.655,IMU0,0.06884765625,0.603515625,0.1259765625,-3.8515406162464987,-130.0420168067227,-7.703081232492997
5.665,IMU0,0.01123046875,0.61181640625,0.1455078125,3.781512605042017,-125.77030812324931,-7.212885154061625
5.675,IMU0,0.0400390625,0.59326171875,0.11767578125,0.9803921568627452,-128.78151260504202,-5.5322128851540615
5.685,IMU0,0.056640625,0.583984375,0.1171875,-5.602240896358544,-130.11204481792717,-5.112044817927171
5.695,IMU0,0.05126953125,0.58544921875,0.1318359375,-1.5406162464985995,-128.78151260504202,-6.582633053221289
5.705,IMU0,0.0361328125,0.59375,0.1416015625,5.6722689075630255,-131.72268907563026,-7.563025210084034
5.715,IMU0,0.021484375,0.58837890625,0.125,11.134453781512606,-129.2016806722689,-7.492997198879552
5.725,IMU0,0.04931640625,0.58740234375,0.10205078125,1.400560224089636,-128.57142857142858,-7.282913165266106
5.735,IMU0,0.05029296875,0.58154296875,0.1337890625,15.896358543417367,-129.55182072829132,-6.582633053221289
5.745,IMU0,0.0400390625,0.5771484375,0.1044921875,10.434173669467787,-129.55182072829132,-6.0924369747899165
5.755,IMU0,0.04443359375,0.57470703125,0.1416015625,4.411764705882353,-132.703081232493,-5.392156862745098
5.765,IMU0,0.0556640625,0.58740234375,0.09033203125,5.042016806722689,-129.62184873949582,-5.882352941176471
5.775,IMU0,0.017578125,0.57177734375,0.083984375,6.23249299719888,-129.83193277310926,-5.882352941176471
5.785,IMU0,0.07861328125,0.59228515625,0.14697265625,9.663865546218489,-129.76190476190476,-6.582633053221289
5.795,IMU0,0.009765625,0.5859375,0.0810546875,7.703081232492997,-127.52100840336135,-6.372549019607844
5.805,IMU0,0.08349609375,0.58447265625,0.13671875,-3.5714285714285716,-131.37254901960785,-7.282913165266106
5.815,IMU0,-0.0087890625,0.57177734375,0.09716796875,1.050420168067227,-129.41176470588235,-6.442577030812325
5.825,IMU0,0.1103515625,0.576171875,0.09912109375,1.8907563025210086,-130.46218487394958,-6.862745098039216
5.835,IMU0,-0.02099609375,0.58056640625,0.1171875,7.773109243697479,-128.64145658263305,-6.162464985994398
5.845,IMU0,0.08349609375,0.5654296875,0.0908203125,-6.442577030812325,-128.78151260504202,-6.302521008403362
5.855,IMU0,0.0439453125,0.56396484375,0.099609375,-5.112044817927171,-125.63025210084034,-5.882352941176471
5.865,IMU0,0.04150390625,0.56591796875,0.09423828125,-3.9215686274509807,-125.07002801120449,-5.742296918767507
5.875,IMU0,0.05029296875,0.56884765625,0.0927734375,4.481792717086835,-124.15966386554622,-5.8123249299719895
5.885,IMU0,0.03125,0.56982421875,0.10595703125,4.271708683473389,-124.29971988795519,-5.322128851540617
5.895,IMU0,0.083984375,0.56689453125,0.115234375,6.022408963585434,-124.29971988795519,-6.0924369747899165
5.905,IMU0,0.02294921875,0.56201171875,0.10009765625,1.3305322128851542,-123.66946778711485,-6.512605042016807
5.915,IMU0,0.0185546875,0.56591796875,0.07470703125,-4.201680672268908,-126.68067226890757,-6.512605042016807
5.925,IMU0,0.06640625,0.5625,0.126953125,5.042016806722689,-122.96918767507003,-6.862745098039216
5.935,IMU0,0.0341796875,0.55859375,0.09033203125,1.5406162464985995,-119.95798319327731,-6.862745098039216
5.945,IMU0,0.05615234375,0.56982421875,0.1123046875,6.372549019607844,-121.42857142857143,-7.142857142857143
5.955,IMU0,0.04052734375,0.56298828125,0.091796875,1.050420168067227,-120.65826330532214,-7.492997198879552
5.965,IMU0,0.03564453125,0.55517578125,0.12060546875,1.2605042016806722,-124.08963585434174,-7.072829131652662
5.975,IMU0,0.046875,0.54296875,0.09716796875,1.8207282913165266,-124.2296918767507,-6.022408963585434
5.985,IMU0,0.06591796875,0.55029296875,0.119140625,-2.5210084033613445,-128.01120448179273,-5.46218487394958
5.995,IMU0,0.03369140625,0.55859375,0.10400390625,5.112044817927171,-120.65826330532214,-6.652661064425771
6.005,IMU0,0.04296875,0.552734375,0.10595703125,-2.170868347338936,-124.6498599439776,-6.792717086834735
6.015,IMU0,0.033203125,0.5537109375,0.10791015625,0.21008403361344538,-128.99159663865547,-5.9523809523809526
6.025,IMU0,0.056640625,0.5400390625,0.09033203125,-1.8907563025210086,-128.4313725490196,-6.0924369747899165
6.035,IMU0,0.0439453125,0.5458984375,0.11572265625,5.322128851540617,-129.90196078431373,-6.652661064425771
6.045,IMU0,0.03369140625,0.5556640625,0.10986328125,8.683473389355743,-125.70028011204482,-6.442577030812325
6.055,IMU0,0.0419921875,0.5498046875,0.10205078125,2.100840336134454,-124.15966386554622,-5.8123249299719895
6.065,IMU0,0.05224609375,0.55712890625,0.12841796875,8.753501400560225,-123.24929971988796,-5.602240896358544
6.075,IMU0,0.0400390625,0.55810546875,0.10693359375,-5.112044817927171,-124.01960784313727,-5.46218487394958
6.085,IMU0,0.03515625,0.5458984375,0.138671875,-4.761904761904762,-125.07002801120449,-5.042016806722689
6.095,IMU0,0.046875,0.544921875,0.1025390625,-0.9103641456582633,-123.109243697479,-4.831932773109244
6.105,IMU0,0.052734375,0.54248046875,0.12939453125,2.3109243697478994,-126.61064425770309,-5.112044817927171
6.115,IMU0,0.0478515625,0.5439453125,0.0712890625,1.1204481792717087,-128.15126050420167,-5.602240896358544
6.125,IMU0,0.0244140625,0.54541015625,0.13037109375,0.8403361344537815,-127.87114845938376,-5.9523809523809526
6.135,IMU0,0.05615234375,0.546875,0.08837890625,3.081232492997199,-127.94117647058825,-5.9523809523809526
6.145,IMU0,0.0576171875,0.5390625,0.09912109375,7.282913165266106,-123.8795518207283,-6.162464985994398
6.155,IMU0,0.05126953125,0.53564453125,0.13427734375,-0.42016806722689076,-127.10084033613445,-6.23249299719888
6.165,IMU0,0.03466796875,0.52587890625,0.07275390625,7.563025210084034,-125.21008403361346,-5.46218487394958
6.175,IMU0,0.07421875,0.54150390625,0.11328125,1.7507002801120448,-125.21008403361346,-5.882352941176471
6.185,IMU0,0.02587890625,0.53515625,0.08935546875,2.73109243697479,-122.82913165266108,-6.162464985994398
6.195,IMU0,0.044921875,0.521484375,0.11083984375,7.773109243697479,-119.25770308123249,-5.9523809523809526
6.205,IMU0,0.05908203125,0.53759765625,0.1162109375,-2.801120448179272,-120.51820728291317,-6.442577030812325
6.215,IMU0,0.048828125,0.53564453125,0.0908203125,5.322128851540617,-121.91876750700281,-7.002801120448179
6.225,IMU0,0.03466796875,0.53759765625,0.07275390625,8.823529411764707,-123.80952380952381,-7.282913165266106
6.235,IMU0,0.05126953125,0.5244140625,0.11376953125,-2.8711484593837535,-123.73949579831934,-7.492997198879552
6.245,IMU0,0.03125,0.52392578125,0.09912109375,-0.4901960784313726,-124.2296918767507,-7.42296918767507
6.255,IMU0,0.04296875,0.52197265625,0.09814453125,5.46218487394958,-120.37815126050421,-7.983193277310924
6.265,IMU0,0.037109375,0.53369140625,0.0869140625,-3.991596638655462,-123.24929971988796,-8.543417366946779
6.275,IMU0,0.0166015625,0.52783203125,0.0986328125,-1.9607843137254903,-124.85994397759104,-8.403361344537815
6.285,IMU0,0.03369140625,0.5302734375,0.09228515625,-9.803921568627452,-124.29971988795519,-7.983193277310924
6.295,IMU0,0.03662109375,0.52734375,0.08740234375,-2.73109243697479,-121.07843137254902,-7.703081232492997
6.305,IMU0,0.056640625,0.51708984375,0.10546875,3.711484593837535,-120.65826330532214,-8.263305322128852
6.315,IMU0,0.02392578125,0.52490234375,0.0546875,5.5322128851540615,-116.59663865546219,-8.263305322128852
6.325,IMU0,0.0322265625,0.52880859375,0.13330078125,1.1204481792717087,-120.16806722689076,-7.913165266106443
6.335,IMU0,-0.0009765625,0.52197265625,0.07421875,-0.2801120448179272,-119.25770308123249,-6.442577030812325
6.345,IMU0,0.04443359375,0.5146484375,0.11865234375,4.131652661064426,-119.67787114845939,-5.322128851540617
6.355,IMU0,0.05322265625,0.51611328125,0.115234375,4.061624649859944,-118.9075630252101,-5.8123249299719895
6.365,IMU0,0.0224609375,0.5166015625,0.08544921875,2.9411764705882355,-121.07843137254902,-7.072829131652662
6.375,IMU0,0.044921875,0.52099609375,0.111328125,3.011204481792717,-117.7170868347339,-7.072829131652662
6.385,IMU0,0.005859375,0.51806640625,0.1064453125,8.683473389355743,-117.29691876750701,-5.882352941176471
6.395,IMU0,0.0361328125,0.5107421875,0.10205078125,4.69187675070028,-125.56022408963587,-4.341736694677872
6.405,IMU0,0.0673828125,0.5078125,0.08984375,0.4901960784313726,-123.73949579831934,-4.621848739495799
6.415,IMU0,0.01220703125,0.50830078125,0.1142578125,-0.42016806722689076,-122.6890756302521,-4.971988795518207
6.425,IMU0,0.05908203125,0.51025390625,0.07275390625,1.050420168067227,-119.04761904761905,-5.042016806722689
6.435,IMU0,0.0068359375,0.5166015625,0.13916015625,1.8207282913165266,-121.07843137254902,-4.201680672268908
6.445,IMU0,0.03271484375,0.5126953125,0.087890625,5.882352941176471,-119.46778711484595,-3.151260504201681
6.455,IMU0,0.07568359375,0.509765625,0.10498046875,1.3305322128851542,-121.91876750700281,-3.711484593837535
6.465,IMU0,0.01708984375,0.50537109375,0.07080078125,-4.341736694677872,-121.07843137254902,-3.8515406162464987
6.475,IMU0,0.07373046875,0.5068359375,0.1259765625,-0.21008403361344538,-122.26890756302521,-4.69187675070028
6.485,IMU0,0.009765625,0.50048828125,0.09130859375,5.112044817927171,-119.11764705882354,-3.991596638655462
6.495,IMU0,0.0625,0.490234375,0.05419921875,3.5714285714285716,-121.35854341736695,-3.781512605042017
6.505,IMU0,0.048828125,0.49951171875,0.10986328125,-1.7507002801120448,-119.67787114845939,-3.9215686274509807
6.515,IMU0,0.0390625,0.50244140625,0.11279296875,3.711484593837535,-116.31652661064426,-4.69187675070028
6.525,IMU0,0.04833984375,0.49462890625,0.08447265625,7.703081232492997,-118.0672268907563,-5.042016806722689
6.535,IMU0,0.06103515625,0.4951171875,0.09814453125,0.7703081232492998,-116.87675070028011,-5.8123249299719895
6.545,IMU0,0.0693359375,0.498046875,0.15625,-0.350140056022409,-118.0672268907563,-5.8123249299719895
6.555,IMU0,0.0224609375,0.50048828125,0.080078125,-0.42016806722689076,-120.16806722689076,-5.042016806722689
6.565,IMU0,0.05908203125,0.49462890625,0.0986328125,0.9103641456582633,-122.89915966386555,-5.112044817927171
6.575,IMU0,0.033203125,0.49462890625,0.080078125,1.2605042016806722,-118.41736694677871,-5.8123249299719895
6.585,IMU0,0.0546875,0.49755859375,0.09423828125,0.0,-120.0280112044818,-6.722689075630252
6.595,IMU0,0.06494140625,0.49560546875,0.1123046875,5.9523809523809526,-118.9075630252101,-7.773109243697479
6.605,IMU0,0.01025390625,0.4970703125,0.0732421875,8.123249299719888,-119.81792717086836,-7.563025210084034
6.615,IMU0,0.0576171875,0.49169921875,0.10009765625,-0.1400560224089636,-121.35854341736695,-6.512605042016807
6.625,IMU0,0.044921875,0.48046875,0.07470703125,7.282913165266106,-119.39775910364146,-6.302521008403362
6.635,IMU0,0.04736328125,0.48291015625,0.115234375,-1.050420168067227,-118.97759103641457,-7.142857142857143
6.645,IMU0,0.0654296875,0.482421875,0.08740234375,-4.761904761904762,-119.39775910364146,-8.19327731092437
6.655,IMU0,0.01416015625,0.50146484375,0.10546875,0.7703081232492998,-119.81792717086836,-8.19327731092437
6.665,IMU0,0.03662109375,0.49560546875,0.0732421875,-0.350140056022409,-117.3669467787115,-7.142857142857143
6.675,IMU0,0.0361328125,0.48583984375,0.09619140625,1.1904761904761905,-118.83753501400561,-6.302521008403362
6.685,IMU0,0.06103515625,0.48681640625,0.11474609375,-0.42016806722689076,-118.0672268907563,-6.23249299719888
6.695,IMU0,0.0537109375,0.4873046875,0.05126953125,-4.061624649859944,-118.41736694677871,-6.792717086834735
6.705,IMU0,0.00146484375,0.47998046875,0.13427734375,0.42016806722689076,-118.34733893557423,-7.002801120448179
6.715,IMU0,0.0361328125,0.48828125,0.0615234375,-3.8515406162464987,-117.92717086834735,-6.022408963585434
6.725,IMU0,0.04150390625,0.47412109375,0.10498046875,0.6302521008403361,-119.67787114845939,-5.882352941176471
6.735,IMU0,0.04052734375,0.48388671875,0.099609375,0.4901960784313726,-119.04761904761905,-6.23249299719888
6.745,IMU0,0.0439453125,0.4912109375,0.1142578125,-0.2801120448179272,-118.55742296918768,-6.722689075630252
6.755,IMU0,0.0107421875,0.48291015625,0.09423828125,-1.680672268907563,-120.37815126050421,-6.302521008403362
6.765,IMU0,0.02490234375,0.46826171875,0.09375,3.361344537815126,-119.11764705882354,-5.322128851540617
6.775,IMU0,0.0595703125,0.470703125,0.0986328125,0.4901960784313726,-117.64705882352942,-5.46218487394958
6.785,IMU0,0.0146484375,0.46728515625,0.099609375,0.5602240896358543,-116.38655462184875,-6.162464985994398
6.795,IMU0,0.05224609375,0.4765625,0.091796875,0.2801120448179272,-118.4873949579832,-6.652661064425771
6.805,IMU0,-0.00341796875,0.48583984375,0.11181640625,4.411764705882353,-118.83753501400561,-6.372549019607844
6.815,IMU0,0.0537109375,0.46533203125,0.05908203125,-0.350140056022409,-124.01960784313727,-5.882352941176471
6.825,IMU0,0.01416015625,0.46533203125,0.13330078125,8.543417366946779,-121.70868347338936,-6.022408963585434
6.835,IMU0,0.06494140625,0.4736328125,0.0732421875,2.801120448179272,-119.39775910364146,-6.442577030812325
6.845,IMU0,0.005859375,0.4775390625,0.10791015625,6.372549019607844,-118.13725490196079,-6.442577030812325
6.855,IMU0,0.033203125,0.47705078125,0.07470703125,-0.6302521008403361,-121.98879551820728,-5.882352941176471
6.865,IMU0,0.05517578125,0.47216796875,0.130859375,-2.5910364145658265,-121.63865546218489,-5.5322128851540615
6.875,IMU0,0.00048828125,0.470703125,0.0703125,2.030812324929972,-121.5686274509804,-4.901960784313726
6.885,IMU0,0.05078125,0.4697265625,0.1240234375,6.582633053221289,-119.04761904761905,-4.971988795518207
6.895,IMU0,0.0458984375,0.46435546875,0.05029296875,4.411764705882353,-123.59943977591037,-5.2521008403361344
6.905,IMU0,0.0380859375,0.4765625,0.1181640625,0.9803921568627452,-123.52941176470588,-5.6722689075630255
6.915,IMU0,0.01171875,0.46875,0.06591796875,0.42016806722689076,-118.0672268907563,-5.042016806722689
6.925,IMU0,0.048828125,0.4609375,0.103515625,0.350140056022409,-123.59943977591037,-4.131652661064426
6.935,IMU0,0.01953125,0.46533203125,0.09912109375,-1.1204481792717087,-123.31932773109244,-3.361344537815126
6.945,IMU0,0.07080078125,0.46142578125,0.0654296875,2.73109243697479,-120.7983193277311,-4.061624649859944
6.955,IMU0,0.017578125,0.45654296875,0.09521484375,1.2605042016806722,-119.04761904761905,-4.831932773109244
6.965,IMU0,0.03955078125,0.46142578125,0.07470703125,1.050420168067227,-119.39775910364146,-4.69187675070028
6.975,IMU0,0.0283203125,0.45849609375,0.09765625,2.5910364145658265,-120.23809523809524,-4.061624649859944
6.985,IMU0,0.0556640625,0.46044921875,0.05908203125,3.2212885154061626,-121.77871148459384,-4.341736694677872
6.995,IMU0,0.0390625,0.44970703125,0.09130859375,-6.302521008403362,-120.58823529411765,-4.831932773109244
7.005,IMU0,0.041015625,0.4599609375,0.08544921875,-6.652661064425771,-119.88795518207283,-5.882352941176471
7.015,IMU0,0.0361328125,0.45703125,0.09423828125,2.380952380952381,-118.55742296918768,-6.0924369747899165
7.025,IMU0,0.03857421875,0.45654296875,0.091796875,0.42016806722689076,-123.17927170868347,-5.882352941176471
7.035,IMU0,0.04638671875,0.45263671875,0.1005859375,1.7507002801120448,-122.54901960784315,-6.022408963585434
7.045,IMU0,0.0419921875,0.45556640625,0.07275390625,-2.100840336134454,-120.44817927170868,-6.372549019607844
7.055,IMU0,0.02734375,0.4541015625,0.0859375,-0.9103641456582633,-122.05882352941177,-6.792717086834735
7.065,IMU0,0.0419921875,0.4521484375,0.09130859375,3.5014005602240896,-124.92997198879553,-6.722689075630252
7.075,IMU0,0.03466796875,0.44921875,0.0673828125,0.9103641456582633,-121.28851540616247,-7.072829131652662
7.085,IMU0,0.0380859375,0.45166015625,0.09765625,3.151260504201681,-123.03921568627452,-7.282913165266106
7.095,IMU0,0.060546875,0.45751953125,0.07861328125,2.5210084033613445,-119.46778711484595,-7.492997198879552
7.105,IMU0,0.01904296875,0.447265625,0.08935546875,6.0924369747899165,-121.49859943977592,-6.932773109243698
7.115,IMU0,0.02685546875,0.4501953125,0.080078125,-5.2521008403361344,-120.7983193277311,-5.882352941176471
7.125,IMU0,0.05859375,0.4404296875,0.10009765625,-0.9803921568627452,-121.49859943977592,-6.162464985994398
7.135,IMU0,0.04736328125,0.44140625,0.0654296875,0.8403361344537815,-120.09803921568628,-7.282913165266106
7.145,IMU0,0.01318359375,0.44091796875,0.0966796875,-3.711484593837535,-117.57703081232494,-8.123249299719888
7.155,IMU0,0.044921875,0.44677734375,0.06591796875,-1.3305322128851542,-120.58823529411765,-7.563025210084034
7.165,IMU0,0.005859375,0.44384765625,0.125,4.761904761904762,-121.49859943977592,-6.442577030812325
7.175,IMU0,0.04248046875,0.43798828125,0.09326171875,3.151260504201681,-116.24649859943978,-7.212885154061625
7.185,IMU0,0.03076171875,0.439453125,0.0791015625,-2.3109243697478994,-118.62745098039217,-8.403361344537815
7.195,IMU0,0.037109375,0.443359375,0.08349609375,-2.170868347338936,-116.73669467787116,-8.19327731092437
7.205,IMU0,0.01318359375,0.4365234375,0.10009765625,1.3305322128851542,-116.45658263305323,-7.002801120448179
7.215,IMU0,0.02880859375,0.4375,0.05322265625,-1.7507002801120448,-116.87675070028011,-6.162464985994398
7.225,IMU0,0.0458984375,0.42138671875,0.09912109375,3.2212885154061626,-119.11764705882354,-6.0924369747899165
7.235,IMU0,0.0302734375,0.43408203125,0.068359375,1.6106442577030813,-118.0672268907563,-6.932773109243698
7.245,IMU0,0.0341796875,0.4423828125,0.09814453125,-3.5714285714285716,-114.77591036414566,-7.563025210084034
7.255,IMU0,0.021484375,0.42919921875,0.07177734375,0.2801120448179272,-115.82633053221289,-7.352941176470589
7.265,IMU0,0.02880859375,0.421875,0.07470703125,-0.700280112044818,-117.43697478991596,-6.722689075630252
7.275,IMU0,0.02783203125,0.42724609375,0.06982421875,1.050420168067227,-118.41736694677871,-6.162464985994398
7.285,IMU0,0.03466796875,0.42822265625,0.0947265625,4.341736694677872,-116.03641456582633,-6.23249299719888
7.295,IMU0,0.052734375,0.43212890625,0.07763671875,0.21008403361344538,-117.99719887955183,-6.722689075630252
7.305,IMU0,0.021484375,0.4189453125,0.06787109375,2.2408963585434174,-116.38655462184875,-6.932773109243698
7.315,IMU0,0.04150390625,0.431640625,0.0791015625,6.652661064425771,-116.66666666666667,-6.722689075630252
7.325,IMU0,0.0361328125,0.4384765625,0.0732421875,-1.8907563025210086,-116.24649859943978,-6.022408963585434
7.335,IMU0,0.04296875,0.42822265625,0.07373046875,3.781512605042017,-114.42577030812325,-5.602240896358544
7.345,IMU0,0.04296875,0.42919921875,0.08056640625,0.4901960784313726,-113.44537815126051,-5.602240896358544
7.355,IMU0,0.01611328125,0.43212890625,0.078125,-2.450980392156863,-116.73669467787116,-5.182072829131653
7.365,IMU0,0.04736328125,0.4208984375,0.07568359375,-3.011204481792717,-117.64705882352942,-4.761904761904762
7.375,IMU0,0.033203125,0.41552734375,0.08251953125,-0.2801120448179272,-114.84593837535014,-5.2521008403361344
7.385,IMU0,0.05224609375,0.42431640625,0.05517578125,-0.700280112044818,-115.12605042016807,-5.392156862745098
7.395,IMU0,0.02685546875,0.4228515625,0.08447265625,-0.9803921568627452,-113.58543417366947,-5.46218487394958
7.405,IMU0,0.03955078125,0.4130859375,0.056640625,-1.6106442577030813,-115.33613445378151,-5.112044817927171
7.415,IMU0,0.04833984375,0.4228515625,0.08251953125,-0.700280112044818,-115.54621848739497,-5.182072829131653
7.425,IMU0,0.04052734375,0.41943359375,0.08544921875,-6.23249299719888,-113.65546218487395,-5.322128851540617
7.435,IMU0,0.04052734375,0.408203125,0.0654296875,3.641456582633053,-112.95518207282913,-5.5322128851540615
7.445,IMU0,0.056640625,0.4169921875,0.080078125,-1.7507002801120448,-113.93557422969188,-6.372549019607844
7.455,IMU0,0.0302734375,0.41796875,0.0595703125,-0.700280112044818,-111.48459383753502,-6.792717086834735
7.465,IMU0,0.04833984375,0.40380859375,0.0634765625,0.8403361344537815,-112.53501400560225,-6.582633053221289
7.475,IMU0,0.0517578125,0.41015625,0.0771484375,-1.2605042016806722,-112.88515406162466,-6.722689075630252
7.485,IMU0,0.06005859375,0.41552734375,0.08349609375,7.913165266106443,-113.37535014005603,-6.862745098039216
7.495,IMU0,0.04541015625,0.4013671875,0.04638671875,-1.1904761904761905,-110.29411764705883,-6.512605042016807
7.505,IMU0,0.0458984375,0.40478515625,0.09130859375,2.170868347338936,-110.4341736694678,-6.0924369747899165
7.515,IMU0,0.05078125,0.40478515625,0.07080078125,2.801120448179272,-111.34453781512606,-6.722689075630252
7.525,IMU0,0.04541015625,0.40087890625,0.08837890625,5.042016806722689,-110.85434173669468,-7.913165266106443
7.535,IMU0,0.03662109375,0.41357421875,0.0654296875,1.400560224089636,-110.08403361344538,-8.61344537815126
7.545,IMU0,0.03955078125,0.41650390625,0.06103515625,-3.361344537815126,-110.99439775910365,-8.473389355742297
7.555,IMU0,0.0400390625,0.41357421875,0.08544921875,-0.42016806722689076,-111.62464985994399,-7.913165266106443
7.565,IMU0,0.03076171875,0.40673828125,0.0986328125,-0.6302521008403361,-112.11484593837535,-7.42296918767507
7.575,IMU0,0.06494140625,0.400390625,0.05126953125,-0.6302521008403361,-112.3249299719888,-7.42296918767507
7.585,IMU0,0.0439453125,0.40380859375,0.05712890625,-2.73109243697479,-109.73389355742297,-8.403361344537815
7.595,IMU0,0.04638671875,0.4111328125,0.06689453125,-0.42016806722689076,-108.8935574229692,-8.753501400560225
7.605,IMU0,0.01806640625,0.40283203125,0.0947265625,1.1204481792717087,-109.94397759103641,-7.773109243697479
7.615,IMU0,0.03955078125,0.41015625,0.0615234375,-4.201680672268908,-110.71428571428572,-6.862745098039216
7.625,IMU0,0.03369140625,0.40380859375,0.06982421875,-1.5406162464985995,-111.06442577030813,-6.862745098039216
7.635,IMU0,0.05322265625,0.40087890625,0.048828125,1.9607843137254903,-108.12324929971989,-7.843137254901961
7.645,IMU0,0.037109375,0.4091796875,0.09228515625,4.131652661064426,-106.09243697478992,-8.543417366946779
7.655,IMU0,0.01318359375,0.40576171875,0.07958984375,2.5910364145658265,-104.69187675070029,-7.913165266106443
7.665,IMU0,0.04052734375,0.3955078125,0.07080078125,-0.21008403361344538,-108.05322128851542,-6.512605042016807
7.675,IMU0,0.00927734375,0.3974609375,0.07421875,0.700280112044818,-107.91316526610645,-5.742296918767507
7.685,IMU0,0.068359375,0.4033203125,0.0927734375,0.2801120448179272,-105.11204481792717,-6.0924369747899165
7.695,IMU0,0.0107421875,0.39892578125,0.05029296875,-1.7507002801120448,-107.00280112044818,-6.652661064425771
7.705,IMU0,0.0458984375,0.40380859375,0.09228515625,-3.2212885154061626,-105.74229691876751,-6.862745098039216
7.715,IMU0,0.01708984375,0.3984375,0.07568359375,-2.8711484593837535,-107.98319327731093,-6.162464985994398
7.725,IMU0,0.02294921875,0.39404296875,0.0673828125,-1.050420168067227,-108.05322128851542,-5.112044817927171
7.735,IMU0,0.0546875,0.39013671875,0.08740234375,0.8403361344537815,-107.56302521008404,-5.322128851540617
7.745,IMU0,0.02197265625,0.38916015625,0.0419921875,-1.1904761904761905,-108.75350140056022,-5.602240896358544
7.755,IMU0,0.0439453125,0.3935546875,0.126953125,-0.42016806722689076,-107.42296918767508,-6.23249299719888
7.765,IMU0,0.01513671875,0.3935546875,0.0380859375,0.7703081232492998,-108.12324929971989,-5.46218487394958
7.775,IMU0,0.0576171875,0.3935546875,0.1025390625,0.9103641456582633,-110.0140056022409,-5.112044817927171
7.785,IMU0,0.013671875,0.38916015625,0.03857421875,0.7703081232492998,-105.95238095238096,-4.761904761904762
7.795,IMU0,0.04443359375,0.3935546875,0.099609375,-0.350140056022409,-105.3921568627451,-5.042016806722689
7.805,IMU0,0.05126953125,0.39306640625,0.10205078125,-2.73109243697479,-106.37254901960785,-5.2521008403361344
7.815,IMU0,0.00830078125,0.38330078125,0.01611328125,2.2408963585434174,-103.43137254901961,-5.112044817927171
7.825,IMU0,0.05126953125,0.38037109375,0.10498046875,4.69187675070028,-103.64145658263305,-4.761904761904762
7.835,IMU0,0.041015625,0.39013671875,0.05712890625,-2.170868347338936,-105.25210084033614,-4.971988795518207
7.845,IMU0,0.03564453125,0.3798828125,0.08935546875,-2.9411764705882355,-104.97198879551821,-5.042016806722689
7.855,IMU0,0.03271484375,0.3857421875,0.03662109375,1.1204481792717087,-102.38095238095238,-5.042016806722689
7.865,IMU0,0.04052734375,0.3818359375,0.1044921875,1.050420168067227,-102.31092436974791,-4.971988795518207
7.875,IMU0,0.03369140625,0.38330078125,0.02001953125,-0.8403361344537815,-101.68067226890757,-5.042016806722689
7.885,IMU0,0.05810546875,0.3876953125,0.10888671875,-4.201680672268908,-100.28011204481793,-5.742296918767507
7.895,IMU0,0.0029296875,0.3857421875,0.06298828125,5.602240896358544,-102.6610644257703,-5.322128851540617
7.905,IMU0,0.052734375,0.376953125,0.05517578125,1.400560224089636,-103.85154061624651,-4.901960784313726
7.915,IMU0,0.0224609375,0.38525390625,0.04296875,1.7507002801120448,-102.6610644257703,-5.042016806722689
7.925,IMU0,0.0712890625,0.3818359375,0.0771484375,-0.0700280112044818,-102.24089635854342,-5.882352941176471
7.935,IMU0,0.03271484375,0.38232421875,0.0849609375,-0.700280112044818,-102.45098039215686,-6.302521008403362
7.945,IMU0,0.00927734375,0.384765625,0.06787109375,-0.8403361344537815,-104.27170868347339,-5.182072829131653
7.955,IMU0,0.0517578125,0.3798828125,0.06640625,4.971988795518207,-104.41176470588236,-4.271708683473389
7.965,IMU0,0.0439453125,0.36962890625,0.05126953125,0.7703081232492998,-103.29131652661064,-4.621848739495799
7.975,IMU0,0.056640625,0.37646484375,0.05908203125,-2.5910364145658265,-101.82072829131653,-6.0924369747899165
7.985,IMU0,0.0146484375,0.37939453125,0.0751953125,-3.361344537815126,-101.82072829131653,-6.372549019607844
7.995,IMU0,0.0537109375,0.3857421875,0.083984375,-1.2605042016806722,-103.15126050420169,-5.9523809523809526
8.005,IMU0,-0.01318359375,0.380859375,0.0595703125,-1.9607843137254903,-105.25210084033614,-4.341736694677872
8.015,IMU0,0.068359375,0.37255859375,0.0859375,-2.801120448179272,-102.6610644257703,-3.9215686274509807
8.025,IMU0,0.0400390625,0.3681640625,0.06005859375,-1.3305322128851542,-103.22128851540617,-5.112044817927171
8.035,IMU0,0.02734375,0.37548828125,0.0751953125,-3.151260504201681,-101.75070028011206,-6.442577030812325
8.045,IMU0,0.0390625,0.3779296875,0.06201171875,-3.991596638655462,-103.01120448179272,-6.302521008403362
8.055,IMU0,0.0,0.36767578125,0.06005859375,-0.0700280112044818,-104.90196078431373,-5.112044817927171
8.065,IMU0,0.0517578125,0.36962890625,0.06787109375,2.5910364145658265,-107.07282913165267,-4.061624649859944
8.075,IMU0,0.02734375,0.361328125,0.06591796875,-3.711484593837535,-105.60224089635855,-4.411764705882353
8.085,IMU0,0.046875,0.369140625,0.08056640625,0.5602240896358543,-104.90196078431373,-5.2521008403361344
8.095,IMU0,0.03857421875,0.37158203125,0.06884765625,3.151260504201681,-103.22128851540617,-5.742296918767507
8.105,IMU0,0.00048828125,0.36474609375,0.06640625,0.2801120448179272,-105.18207282913166,-4.971988795518207
8.115,IMU0,0.05078125,0.3681640625,0.0673828125,-1.4705882352941178,-106.09243697478992,-3.9215686274509807
8.125,IMU0,0.0693359375,0.361328125,0.07275390625,3.011204481792717,-108.12324929971989,-4.271708683473389
8.135,IMU0,0.00830078125,0.3642578125,0.0751953125,2.73109243697479,-107.21288515406162,-4.831932773109244
8.145,IMU0,0.02880859375,0.3623046875,0.05615234375,-2.030812324929972,-107.14285714285715,-4.69187675070028
8.155,IMU0,0.033203125,0.36181640625,0.07470703125,-5.2521008403361344,-107.703081232493,-4.061624649859944
8.165,IMU0,0.0400390625,0.3564453125,0.064453125,-0.6302521008403361,-108.40336134453781,-4.201680672268908
8.175,IMU0,0.0439453125,0.349609375,0.06640625,6.372549019607844,-106.65266106442577,-5.042016806722689
8.185,IMU0,0.0283203125,0.35595703125,0.07373046875,4.201680672268908,-106.65266106442577,-5.2521008403361344
8.195,IMU0,0.03076171875,0.36181640625,0.052734375,-0.350140056022409,-106.79271708683474,-4.831932773109244
8.205,IMU0,0.01806640625,0.35107421875,0.05810546875,-0.9803921568627452,-104.83193277310924,-4.551820728291316
8.215,IMU0,0.0537109375,0.3544921875,0.05810546875,0.4901960784313726,-105.67226890756304,-4.341736694677872
8.225,IMU0,0.0283203125,0.35498046875,0.0869140625,2.2408963585434174,-105.11204481792717,-4.69187675070028
8.235,IMU0,0.03564453125,0.357421875,0.02099609375,3.641456582633053,-103.78151260504202,-5.042016806722689
8.245,IMU0,0.048828125,0.35595703125,0.0888671875,0.0,-101.5406162464986,-5.742296918767507
8.255,IMU0,0.009765625,0.35595703125,0.05517578125,1.8207282913165266,-103.01120448179272,-5.042016806722689
8.265,IMU0,0.04052734375,0.3564453125,0.06298828125,-0.1400560224089636,-103.5014005602241,-4.481792717086835
8.275,IMU0,0.02294921875,0.34716796875,0.064453125,0.42016806722689076,-103.29131652661064,-4.201680672268908
8.285,IMU0,0.0634765625,0.35009765625,0.06298828125,1.7507002801120448,-103.99159663865547,-5.042016806722689
8.295,IMU0,0.02197265625,0.35888671875,0.06591796875,3.361344537815126,-102.94117647058825,-5.9523809523809526
8.305,IMU0,0.0185546875,0.35400390625,0.04296875,0.2801120448179272,-103.64145658263305,-5.8123249299719895
8.315,IMU0,0.037109375,0.3564453125,0.0771484375,-0.8403361344537815,-104.90196078431373,-5.322128851540617
8.325,IMU0,0.01708984375,0.34423828125,0.03369140625,-1.050420168067227,-105.46218487394958,-4.621848739495799
8.335,IMU0,0.0576171875,0.34716796875,0.076171875,4.411764705882353,-106.09243697478992,-4.551820728291316
8.345,IMU0,0.03369140625,0.341796875,0.03564453125,5.46218487394958,-102.52100840336135,-5.2521008403361344
8.355,IMU0,0.0419921875,0.34326171875,0.06103515625,-0.7703081232492998,-101.9607843137255,-5.742296918767507
8.365,IMU0,0.01123046875,0.35693359375,0.052734375,0.350140056022409,-103.64145658263305,-5.112044817927171
8.375,IMU0,0.04736328125,0.3466796875,0.04833984375,-0.9803921568627452,-102.6610644257703,-4.621848739495799
8.385,IMU0,0.02001953125,0.33544921875,0.05712890625,-0.4901960784313726,-99.64985994397759,-4.761904761904762
8.395,IMU0,0.05078125,0.345703125,0.0654296875,2.030812324929972,-100.49019607843138,-5.042016806722689
8.405,IMU0,0.01708984375,0.349609375,0.056640625,2.801120448179272,-102.87114845938376,-4.901960784313726
8.415,IMU0,0.04541015625,0.34375,0.03759765625,1.050420168067227,-99.85994397759104,-4.831932773109244
8.425,IMU0,0.0126953125,0.34423828125,0.06982421875,2.3109243697478994,-98.66946778711485,-4.761904761904762
8.435,IMU0,0.01708984375,0.35009765625,0.0830078125,-0.4901960784313726,-99.43977591036415,-4.621848739495799
8.445,IMU0,0.0478515625,0.3427734375,0.02392578125,-4.131652661064426,-100.0,-4.621848739495799
8.455,IMU0,0.02197265625,0.3369140625,0.060546875,1.2605042016806722,-100.84033613445379,-5.112044817927171
8.465,IMU0,0.02685546875,0.34814453125,0.044921875,-1.2605042016806722,-101.82072829131653,-4.971988795518207
8.475,IMU0,0.0263671875,0.34033203125,0.0625,0.9803921568627452,-100.77030812324931,-4.411764705882353
8.485,IMU0,0.02978515625,0.34130859375,0.06640625,-3.431372549019608,-100.28011204481793,-4.271708683473389
8.495,IMU0,0.03564453125,0.345703125,0.041015625,-0.6302521008403361,-101.19047619047619,-4.271708683473389
8.505,IMU0,0.01318359375,0.3427734375,0.0625,-0.21008403361344538,-100.91036414565826,-4.061624649859944
8.515,IMU0,0.0380859375,0.3427734375,0.05859375,-0.0700280112044818,-100.4201680672269,-3.991596638655462
8.525,IMU0,0.021484375,0.3388671875,0.07861328125,-0.2801120448179272,-102.45098039215686,-3.5014005602240896
8.535,IMU0,0.04150390625,0.33447265625,0.052734375,1.680672268907563,-104.06162464985995,-3.361344537815126
8.545,IMU0,0.0205078125,0.3251953125,0.0546875,0.0,-103.92156862745098,-3.151260504201681
8.555,IMU0,0.04248046875,0.3330078125,0.05712890625,-0.350140056022409,-104.13165266106444,-3.2212885154061626
8.565,IMU0,0.01220703125,0.333984375,0.08056640625,-0.9103641456582633,-103.15126050420169,-3.2212885154061626
8.575,IMU0,0.04833984375,0.33251953125,0.064453125,-0.1400560224089636,-103.92156862745098,-3.2913165266106446
8.585,IMU0,0.0166015625,0.3349609375,0.076171875,1.050420168067227,-105.88235294117648,-3.431372549019608
8.595,IMU0,0.0341796875,0.33349609375,0.0546875,-3.361344537815126,-105.32212885154063,-3.641456582633053
8.605,IMU0,0.025390625,0.3408203125,0.07763671875,-0.7703081232492998,-102.52100840336135,-3.641456582633053
8.615,IMU0,0.02685546875,0.3359375,0.05615234375,-1.9607843137254903,-105.18207282913166,-3.151260504201681
8.625,IMU0,0.03271484375,0.32958984375,0.0908203125,0.700280112044818,-105.3921568627451,-3.151260504201681
8.635,IMU0,0.03662109375,0.328125,0.0458984375,-2.9411764705882355,-105.32212885154063,-3.5014005602240896
8.645,IMU0,0.0380859375,0.32177734375,0.0810546875,1.6106442577030813,-104.83193277310924,-4.201680672268908
8.655,IMU0,0.00146484375,0.32421875,0.05126953125,2.2408963585434174,-103.5014005602241,-4.481792717086835
8.665,IMU0,0.03515625,0.32763671875,0.09130859375,2.2408963585434174,-105.53221288515407,-4.271708683473389
8.675,IMU0,0.0205078125,0.32666015625,0.0498046875,1.1904761904761905,-105.95238095238096,-4.131652661064426
8.685,IMU0,0.04931640625,0.32421875,0.080078125,2.5910364145658265,-106.86274509803923,-4.411764705882353
8.695,IMU0,0.0234375,0.3212890625,0.03125,0.21008403361344538,-104.6218487394958,-4.551820728291316
8.705,IMU0,0.02001953125,0.32080078125,0.0888671875,4.061624649859944,-104.90196078431373,-4.341736694677872
8.715,IMU0,0.04638671875,0.31982421875,0.0615234375,6.0924369747899165,-106.44257703081233,-4.201680672268908
8.725,IMU0,0.01171875,0.3212890625,0.06494140625,4.271708683473389,-103.43137254901961,-4.341736694677872
8.735,IMU0,0.0595703125,0.3173828125,0.04052734375,5.6722689075630255,-103.57142857142857,-5.042016806722689
8.745,IMU0,-0.0078125,0.3125,0.05712890625,5.5322128851540615,-103.36134453781513,-4.971988795518207
8.755,IMU0,0.01513671875,0.3193359375,0.05078125,2.3109243697478994,-103.5014005602241,-5.042016806722689
8.765,IMU0,0.03759765625,0.31787109375,0.04443359375,7.072829131652662,-104.6218487394958,-5.5322128851540615
8.775,IMU0,0.02685546875,0.31982421875,0.04248046875,4.621848739495799,-103.92156862745098,-5.882352941176471
8.785,IMU0,0.01953125,0.322265625,0.0517578125,3.011204481792717,-104.83193277310924,-5.8123249299719895
8.795,IMU0,0.03857421875,0.31787109375,0.060546875,3.2913165266106446,-106.09243697478992,-5.742296918767507
8.805,IMU0,0.02001953125,0.31982421875,0.060546875,5.182072829131653,-104.06162464985995,-5.5322128851540615
8.815,IMU0,0.02880859375,0.3232421875,0.052734375,5.9523809523809526,-104.27170868347339,-5.2521008403361344
8.825,IMU0,0.00927734375,0.32080078125,0.02734375,2.380952380952381,-102.87114845938376,-4.901960784313726
8.835,IMU0,0.04638671875,0.31640625,0.05859375,1.1204481792717087,-103.92156862745098,-5.182072829131653
8.845,IMU0,0.02490234375,0.3154296875,0.0341796875,4.901960784313726,-103.01120448179272,-5.6722689075630255
8.855,IMU0,0.033203125,0.3173828125,0.0517578125,1.050420168067227,-102.80112044817928,-5.742296918767507
8.865,IMU0,0.01953125,0.31689453125,0.03369140625,3.5014005602240896,-103.78151260504202,-4.971988795518207
8.875,IMU0,0.0341796875,0.3154296875,0.06591796875,3.2212885154061626,-103.71148459383754,-4.341736694677872
8.885,IMU0,0.02392578125,0.318359375,0.03125,-0.2801120448179272,-103.78151260504202,-3.711484593837535
8.895,IMU0,0.041015625,0.3134765625,0.068359375,0.7703081232492998,-103.85154061624651,-3.781512605042017
8.905,IMU0,0.01953125,0.31201171875,0.015625,-1.1904761904761905,-103.92156862745098,-4.411764705882353
8.915,IMU0,0.041015625,0.32080078125,0.0673828125,1.1204481792717087,-103.85154061624651,-4.971988795518207
8.925,IMU0,0.0205078125,0.31689453125,0.0458984375,-0.350140056022409,-104.13165266106444,-4.69187675070028
8.935,IMU0,0.01611328125,0.314453125,0.0615234375,-4.551820728291316,-104.69187675070029,-3.641456582633053
8.945,IMU0,0.03466796875,0.30615234375,0.0244140625,-3.781512605042017,-105.74229691876751,-2.73109243697479
8.955,IMU0,0.0302734375,0.3017578125,0.0673828125,0.0,-104.2016806722689,-2.9411764705882355
8.965,IMU0,0.04150390625,0.3115234375,0.03857421875,0.42016806722689076,-103.5014005602241,-3.641456582633053
8.975,IMU0,0.01806640625,0.310546875,0.06884765625,-3.2212885154061626,-103.0812324929972,-4.131652661064426
8.985,IMU0,0.025390625,0.30859375,0.0283203125,-4.69187675070028,-104.27170868347339,-3.8515406162464987
8.995,IMU0,0.017578125,0.30517578125,0.04833984375,-8.123249299719888,-101.89075630252101,-3.361344537815126
9.005,IMU0,0.0283203125,0.3095703125,0.0791015625,-2.8711484593837535,-101.40056022408965,-3.151260504201681
9.015,IMU0,0.03271484375,0.30322265625,0.0615234375,-4.201680672268908,-101.33053221288516,-3.151260504201681
9.025,IMU0,0.02978515625,0.30810546875,0.05419921875,-1.4705882352941178,-102.59103641456583,-3.431372549019608
9.035,IMU0,0.0322265625,0.31103515625,0.04931640625,-2.9411764705882355,-102.10084033613445,-3.361344537815126
9.045,IMU0,0.03173828125,0.30859375,0.06591796875,-3.151260504201681,-101.68067226890757,-3.011204481792717
9.055,IMU0,0.0263671875,0.3095703125,0.07470703125,-3.8515406162464987,-101.33053221288516,-2.5910364145658265
9.065,IMU0,0.017578125,0.30029296875,0.04931640625,-1.2605042016806722,-102.31092436974791,-2.450980392156863
9.075,IMU0,0.04296875,0.30224609375,0.07470703125,-1.7507002801120448,-100.35014005602241,-2.9411764705882355
9.085,IMU0,0.03173828125,0.30810546875,0.064453125,2.5910364145658265,-101.47058823529412,-3.151260504201681
9.095,IMU0,0.02978515625,0.3037109375,0.0791015625,-0.42016806722689076,-102.59103641456583,-3.2212885154061626
9.105,IMU0,0.02783203125,0.298828125,0.05126953125,-1.1204481792717087,-103.78151260504202,-3.431372549019608
9.115,IMU0,0.037109375,0.3017578125,0.06201171875,4.201680672268908,-101.82072829131653,-3.641456582633053
9.125,IMU0,0.04052734375,0.2958984375,0.05078125,0.1400560224089636,-103.01120448179272,-4.271708683473389
9.135,IMU0,0.03076171875,0.302734375,0.07958984375,-1.8207282913165266,-102.87114845938376,-4.551820728291316
9.145,IMU0,0.041015625,0.29736328125,0.05322265625,2.6610644257703084,-101.82072829131653,-4.69187675070028
9.155,IMU0,0.02099609375,0.30322265625,0.05908203125,5.742296918767507,-102.6610644257703,-4.831932773109244
9.165,IMU0,0.05517578125,0.2939453125,0.0498046875,2.170868347338936,-102.73109243697479,-5.042016806722689
9.175,IMU0,0.0234375,0.29931640625,0.0576171875,-1.5406162464985995,-102.03081232492998,-5.602240896358544
9.185,IMU0,0.041015625,0.30078125,0.05126953125,-1.8207282913165266,-102.45098039215686,-5.9523809523809526
9.195,IMU0,0.01708984375,0.28857421875,0.06591796875,-1.2605042016806722,-103.43137254901961,-6.302521008403362
9.205,IMU0,0.0537109375,0.28857421875,0.0205078125,0.9103641456582633,-102.10084033613445,-6.792717086834735
9.215,IMU0,0.005859375,0.291015625,0.0810546875,4.411764705882353,-100.21008403361346,-6.582633053221289
9.225,IMU0,0.04931640625,0.29638671875,0.02734375,1.8207282913165266,-100.98039215686275,-6.372549019607844
9.235,IMU0,0.01904296875,0.2890625,0.05322265625,1.3305322128851542,-100.84033613445379,-6.652661064425771
9.245,IMU0,0.05126953125,0.294921875,0.0576171875,2.5210084033613445,-101.61064425770309,-7.072829131652662
9.255,IMU0,0.025390625,0.29296875,0.04541015625,5.042016806722689,-101.12044817927172,-7.492997198879552
9.265,IMU0,0.03173828125,0.296875,0.03759765625,2.170868347338936,-100.98039215686275,-7.42296918767507
9.275,IMU0,0.0205078125,0.2880859375,0.05078125,0.5602240896358543,-100.49019607843138,-7.002801120448179
9.285,IMU0,0.03515625,0.2822265625,0.04248046875,1.4705882352941178,-101.47058823529412,-6.862745098039216
9.295,IMU0,0.03173828125,0.287109375,0.05859375,2.170868347338936,-100.70028011204482,-7.282913165266106
9.305,IMU0,0.03271484375,0.28955078125,0.041015625,3.2913165266106446,-99.64985994397759,-7.633053221288516
9.315,IMU0,0.01708984375,0.28857421875,0.052734375,4.341736694677872,-99.43977591036415,-7.492997198879552
9.325,IMU0,0.03173828125,0.2939453125,0.03369140625,3.361344537815126,-98.8795518207283,-6.932773109243698
9.335,IMU0,0.01953125,0.29345703125,0.05517578125,1.400560224089636,-99.01960784313727,-6.302521008403362
9.345,IMU0,0.03515625,0.28369140625,0.04345703125,-1.400560224089636,-99.15966386554622,-6.022408963585434
9.355,IMU0,0.02587890625,0.2880859375,0.0595703125,-0.42016806722689076,-100.77030812324931,-6.022408963585434
9.365,IMU0,0.0263671875,0.28515625,0.03125,0.0700280112044818,-101.19047619047619,-6.0924369747899165
9.375,IMU0,0.01611328125,0.28955078125,0.04736328125,-0.5602240896358543,-100.98039215686275,-5.882352941176471
9.385,IMU0,0.0078125,0.2802734375,0.05078125,1.1204481792717087,-100.63025210084034,-4.831932773109244
9.395,IMU0,0.03125,0.28125,0.05419921875,2.2408963585434174,-100.77030812324931,-4.621848739495799
9.405,IMU0,0.013671875,0.27685546875,0.0458984375,0.5602240896358543,-101.61064425770309,-4.621848739495799
9.415,IMU0,0.03662109375,0.2861328125,0.041015625,-0.2801120448179272,-102.59103641456583,-5.042016806722689
9.425,IMU0,-0.00390625,0.28564453125,0.0517578125,1.680672268907563,-103.15126050420169,-4.761904761904762
9.435,IMU0,0.03466796875,0.2861328125,0.029296875,-0.5602240896358543,-103.29131652661064,-4.201680672268908
9.445,IMU0,0.0224609375,0.2861328125,0.0576171875,-0.0700280112044818,-104.2016806722689,-3.711484593837535
9.455,IMU0,0.0302734375,0.287109375,0.0576171875,-1.1904761904761905,-102.24089635854342,-3.361344537815126
9.465,IMU0,0.021484375,0.28515625,0.04931640625,-0.21008403361344538,-103.29131652661064,-2.8711484593837535
9.475,IMU0,0.017578125,0.28369140625,0.037109375,-1.680672268907563,-104.13165266106444,-2.3109243697478994
9.485,IMU0,0.0244140625,0.283203125,0.0546875,0.4901960784313726,-103.99159663865547,-2.030812324929972
9.495,IMU0,0.03759765625,0.2822265625,0.04541015625,0.21008403361344538,-104.55182072829132,-2.2408963585434174
9.505,IMU0,0.0146484375,0.27783203125,0.06298828125,-1.680672268907563,-105.46218487394958,-2.380952380952381
9.515,IMU0,0.0322265625,0.28125,0.0478515625,-2.030812324929972,-104.69187675070029,-2.3109243697478994
9.525,IMU0,0.01904296875,0.28076171875,0.0546875,-1.050420168067227,-104.76190476190477,-2.380952380952381
9.535,IMU0,0.03955078125,0.26806640625,0.041015625,3.2212885154061626,-105.53221288515407,-2.450980392156863
9.545,IMU0,0.0283203125,0.27490234375,0.0595703125,3.011204481792717,-105.3921568627451,-3.081232492997199
9.555,IMU0,0.029296875,0.283203125,0.04541015625,-1.3305322128851542,-105.46218487394958,-3.2212885154061626
9.565,IMU0,0.0302734375,0.27880859375,0.0634765625,0.0700280112044818,-105.11204481792717,-3.011204481792717
9.575,IMU0,0.01806640625,0.275390625,0.041015625,1.050420168067227,-103.01120448179272,-2.801120448179272
9.585,IMU0,0.052734375,0.27587890625,0.078125,-3.151260504201681,-105.53221288515407,-2.8711484593837535
9.595,IMU0,0.03466796875,0.2763671875,0.03955078125,2.73109243697479,-104.34173669467788,-3.431372549019608
9.605,IMU0,0.03369140625,0.27685546875,0.0595703125,1.8907563025210086,-104.06162464985995,-3.8515406162464987
9.615,IMU0,0.0185546875,0.27587890625,0.04541015625,2.030812324929972,-103.78151260504202,-3.431372549019608
9.625,IMU0,0.0419921875,0.271484375,0.0517578125,-0.700280112044818,-104.69187675070029,-3.2212885154061626
9.635,IMU0,0.04345703125,0.27197265625,0.0595703125,0.350140056022409,-103.43137254901961,-3.781512605042017
9.645,IMU0,0.03662109375,0.2685546875,0.0576171875,0.21008403361344538,-102.73109243697479,-4.621848739495799
9.655,IMU0,0.03466796875,0.2724609375,0.0478515625,-2.030812324929972,-102.17086834733894,-4.901960784313726
9.665,IMU0,0.0400390625,0.2744140625,0.05908203125,1.9607843137254903,-102.59103641456583,-4.971988795518207
9.675,IMU0,0.0361328125,0.27392578125,0.05419921875,1.680672268907563,-103.92156862745098,-4.761904761904762
9.685,IMU0,0.0283203125,0.2666015625,0.0439453125,0.21008403361344538,-102.17086834733894,-4.69187675070028
9.695,IMU0,0.05419921875,0.26513671875,0.05029296875,1.1904761904761905,-102.31092436974791,-5.392156862745098
9.705,IMU0,0.02685546875,0.265625,0.052734375,0.350140056022409,-100.4201680672269,-6.442577030812325
9.715,IMU0,0.033203125,0.2587890625,0.04248046875,-1.6106442577030813,-101.33053221288516,-6.0924369747899165
9.725,IMU0,0.04345703125,0.26220703125,0.04443359375,0.9103641456582633,-99.92997198879553,-6.302521008403362
9.735,IMU0,0.0517578125,0.26513671875,0.0380859375,-0.350140056022409,-99.36974789915966,-6.722689075630252
9.745,IMU0,0.02001953125,0.26953125,0.060546875,-0.350140056022409,-99.15966386554622,-6.652661064425771
9.755,IMU0,0.03076171875,0.2666015625,0.0263671875,1.2605042016806722,-99.29971988795519,-5.9523809523809526
9.765,IMU0,0.029296875,0.259765625,0.064453125,-0.350140056022409,-99.50980392156863,-6.022408963585434
9.775,IMU0,0.033203125,0.26611328125,0.04443359375,-0.8403361344537815,-99.08963585434174,-6.372549019607844
9.785,IMU0,0.029296875,0.265625,0.05224609375,1.8907563025210086,-99.43977591036415,-6.792717086834735
9.795,IMU0,0.03125,0.26220703125,0.0380859375,3.641456582633053,-97.89915966386555,-7.072829131652662
9.805,IMU0,0.0400390625,0.26513671875,0.0517578125,1.680672268907563,-97.54901960784314,-7.142857142857143
9.815,IMU0,-0.00341796875,0.26025390625,0.0419921875,0.6302521008403361,-97.6890756302521,-6.302521008403362
9.825,IMU0,0.04736328125,0.2626953125,0.06298828125,3.361344537815126,-99.57983193277312,-5.882352941176471
9.835,IMU0,0.0302734375,0.26123046875,0.0302734375,3.361344537815126,-98.59943977591037,-6.372549019607844
9.845,IMU0,0.0341796875,0.2646484375,0.05224609375,0.9803921568627452,-99.2296918767507,-7.002801120448179
9.855,IMU0,0.01708984375,0.26318359375,0.04638671875,2.6610644257703084,-98.17927170868347,-6.722689075630252
9.865,IMU0,0.0107421875,0.25830078125,0.06298828125,-1.9607843137254903,-99.57983193277312,-5.46218487394958
9.875,IMU0,0.04296875,0.25537109375,0.03369140625,0.1400560224089636,-100.0,-5.042016806722689
9.885,IMU0,0.0146484375,0.2568359375,0.046875,2.3109243697478994,-98.8795518207283,-5.6722689075630255
9.895,IMU0,0.025390625,0.26025390625,0.0283203125,2.5210084033613445,-98.4593837535014,-6.162464985994398
9.905,IMU0,0.015625,0.259765625,0.056640625,1.2605042016806722,-99.64985994397759,-5.9523809523809526
9.915,IMU0,0.01025390625,0.26416015625,0.04931640625,0.0,-100.49019607843138,-4.831932773109244
9.925,IMU0,0.02392578125,0.25830078125,0.046875,-0.1400560224089636,-99.43977591036415,-4.061624649859944
9.935,IMU0,0.0322265625,0.2548828125,0.0361328125,1.050420168067227,-100.0,-4.061624649859944
9.945,IMU0,0.02001953125,0.248046875,0.03857421875,1.5406162464985995,-99.15966386554622,-4.551820728291316
9.955,IMU0,0.0126953125,0.259765625,0.048828125,1.3305322128851542,-99.2296918767507,-4.341736694677872
9.965,IMU0,0.02685546875,0.263671875,0.05517578125,0.5602240896358543,-100.21008403361346,-3.781512605042017
9.975,IMU0,0.01953125,0.24853515625,0.02587890625,-0.350140056022409,-99.29971988795519,-3.431372549019608
9.985,IMU0,0.02978515625,0.24853515625,0.048828125,-0.700280112044818,-98.8795518207283,-3.361344537815126
9.995,IMU0,0.0283203125,0.26123046875,0.04736328125,-1.1904761904761905,-99.71988795518207,-3.151260504201681
10.005,IMU0,0.02294921875,0.25244140625,0.05419921875,1.1904761904761905,-99.85994397759104,-2.8711484593837535
10.015,IMU0,0.029296875,0.25439453125,0.044921875,1.8207282913165266,-99.64985994397759,-2.100840336134454
10.025,IMU0,0.0302734375,0.251953125,0.0380859375,1.1204481792717087,-98.94957983193278,-2.450980392156863
10.035,IMU0,0.02392578125,0.25244140625,0.04150390625,2.380952380952381,-99.36974789915966,-2.6610644257703084
10.045,IMU0,0.02783203125,0.2490234375,0.0498046875,0.0,-100.49019607843138,-2.5910364145658265
10.055,IMU0,0.02197265625,0.251953125,0.03515625,-1.680672268907563,-99.2296918767507,-2.2408963585434174
10.065,IMU0,0.0263671875,0.2470703125,0.0341796875,1.050420168067227,-98.94957983193278,-2.030812324929972
10.075,IMU0,0.046875,0.24658203125,0.05322265625,2.450980392156863,-98.73949579831933,-2.5210084033613445
10.085,IMU0,0.01025390625,0.25048828125,0.0361328125,2.2408963585434174,-97.54901960784314,-3.081232492997199
10.095,IMU0,0.0390625,0.248046875,0.05810546875,1.400560224089636,-98.52941176470588,-3.151260504201681
10.105,IMU0,0.02294921875,0.2490234375,0.01416015625,0.9103641456582633,-97.26890756302521,-3.011204481792717
10.115,IMU0,0.044921875,0.25146484375,0.06494140625,5.392156862745098,-97.89915966386555,-3.081232492997199
10.125,IMU0,0.02978515625,0.24853515625,0.02685546875,1.8907563025210086,-98.17927170868347,-3.151260504201681
10.135,IMU0,0.03076171875,0.24462890625,0.06103515625,-2.5210084033613445,-98.17927170868347,-3.2212885154061626
10.145,IMU0,0.03369140625,0.2451171875,0.03857421875,0.4901960784313726,-98.52941176470588,-3.2212885154061626
10.155,IMU0,0.0341796875,0.2470703125,0.0634765625,1.9607843137254903,-98.03921568627452,-3.781512605042017
10.165,IMU0,0.0380859375,0.244140625,0.0302734375,3.5014005602240896,-97.82913165266108,-4.201680672268908
10.175,IMU0,0.0205078125,0.24609375,0.0380859375,1.2605042016806722,-97.89915966386555,-4.551820728291316
10.185,IMU0,0.0400390625,0.24169921875,0.046875,-0.0700280112044818,-98.38935574229693,-4.621848739495799
10.195,IMU0,0.0078125,0.24365234375,0.0478515625,0.700280112044818,-98.52941176470588,-4.411764705882353
10.205,IMU0,0.056640625,0.2412109375,0.0458984375,0.4901960784313726,-98.24929971988796,-4.69187675070028
10.215,IMU0,0.0205078125,0.2392578125,0.03466796875,0.7703081232492998,-97.40896358543418,-5.5322128851540615
10.225,IMU0,0.04052734375,0.2412109375,0.05615234375,1.1904761904761905,-98.38935574229693,-6.0924369747899165
10.235,IMU0,0.01611328125,0.23876953125,0.04833984375,2.100840336134454,-97.89915966386555,-6.302521008403362
10.245,IMU0,0.03369140625,0.24267578125,0.0478515625,1.8207282913165266,-98.59943977591037,-5.882352941176471
10.255,IMU0,0.01953125,0.24609375,0.044921875,-1.5406162464985995,-99.15966386554622,-5.5322128851540615
10.265,IMU0,0.033203125,0.23974609375,0.04150390625,0.4901960784313726,-97.26890756302521,-5.602240896358544
10.275,IMU0,0.03271484375,0.236328125,0.05517578125,1.7507002801120448,-97.96918767507003,-6.162464985994398
10.285,IMU0,0.02587890625,0.2451171875,0.044921875,0.9103641456582633,-97.61904761904762,-6.442577030812325
10.295,IMU0,0.02587890625,0.23779296875,0.02880859375,2.6610644257703084,-97.12885154061625,-6.372549019607844
10.305,IMU0,0.02392578125,0.24365234375,0.05810546875,0.1400560224089636,-97.3389355742297,-5.8123249299719895
10.315,IMU0,0.033203125,0.23974609375,0.04638671875,1.8207282913165266,-96.21848739495799,-5.5322128851540615
10.325,IMU0,0.01806640625,0.2373046875,0.05615234375,3.081232492997199,-95.58823529411765,-5.46218487394958
10.335,IMU0,0.01220703125,0.23779296875,0.0498046875,1.1204481792717087,-95.09803921568628,-5.6722689075630255
10.345,IMU0,0.03955078125,0.2353515625,0.0361328125,3.711484593837535,-96.07843137254902,-5.602240896358544
