ts,Ax,Ay,Az,Gx,Gy,Gz,T,P,velocity,q0_estimated,q1_estimated,q2_estimated,q3_estimated,filtered_altitude_AGL,filtered_acceleration
-0.755,0.0347,-0.5122,0.043,0.1401,0.7003,0.2801,,,,,,,,,
-0.75,,,,,,,,,-0.047,4.385,7.55,-4.874,-0.032,-0.02,-0.028
-0.745,0.0356,-0.5117,0.043,0.1401,0.6303,0.2801,31.4,100104.0,,,,,,,
-0.74,,,,,,,,,-0.047,4.386,7.55,-4.874,-0.032,-0.02,-0.028
-0.735,0.0347,-0.5122,0.0449,0.1401,0.6303,0.3501,31.4,100094.0,,,,,,,
-0.73,,,,,,,,,-0.049,4.386,7.549,-4.874,-0.032,-0.11,-0.028
-0.725,0.0347,-0.5127,0.0449,0.07,0.6303,0.2801,31.4,100072.0,,,,,,,
-0.72,,,,,,,,,-0.051,4.386,7.549,-4.874,-0.032,-0.1,-0.019
-0.715,0.0347,-0.5107,0.0444,0.07,0.5602,0.2801,31.4,100081.0,,,,,,,
-0.71,,,,,,,,,-0.053,4.387,7.549,-4.874,-0.032,-0.1,-0.019
-0.705,0.0347,-0.5112,0.0454,0.07,0.5602,0.2801,31.4,100062.0,,,,,,,
-0.7,,,,,,,,,-0.055,4.387,7.549,-4.873,-0.032,-0.1,-0.019
-0.695,0.0332,-0.5112,0.0449,0.0,0.5602,0.2801,31.4,100112.0,,,,,,,
-0.69,,,,,,,,,-0.048,4.388,7.548,-4.873,-0.032,0.31,-0.028
-0.685,0.0337,-0.5132,0.043,0.07,0.6303,0.2801,31.4,100077.0,,,,,,,
-0.68,,,,,,,,,-0.042,4.388,7.548,-4.873,-0.032,0.31,-0.028
-0.675,0.0352,-0.5112,0.0435,0.0,0.7703,0.2801,31.3,100098.0,,,,,,,
-0.67,,,,,,,,,-0.035,4.389,7.548,-4.873,-0.032,0.31,-0.019
-0.665,0.0332,-0.5127,0.043,0.1401,0.7703,0.2801,31.4,100091.0,,,,,,,
-0.66,,,,,,,,,-0.037,4.39,7.548,-4.873,-0.032,-0.1,-0.019
-0.655,0.0342,-0.5127,0.043,0.07,0.7703,0.2801,31.4,100093.0,,,,,,,
-0.65,,,,,,,,,-0.034,4.39,7.547,-4.873,-0.032,0.14,-0.019
-0.645,0.0332,-0.5127,0.0444,0.0,0.7703,0.2801,31.4,100103.0,,,,,,,
-0.64,,,,,,,,,-0.031,4.391,7.547,-4.873,-0.032,0.14,-0.009
-0.635,0.0342,-0.5117,0.0435,0.07,0.7003,0.2801,31.3,100059.0,,,,,,,
-0.63,,,,,,,,,-0.028,4.391,7.547,-4.872,-0.032,0.14,0.0
-0.625,0.0352,-0.5112,0.0444,0.1401,0.7003,0.2801,31.4,100085.0,,,,,,,
-0.62,,,,,,,,,-0.026,4.392,7.547,-4.872,-0.032,0.14,-0.019
-0.615,0.0347,-0.5122,0.0444,0.1401,0.6303,0.2801,31.4,100120.0,,,,,,,
-0.61,,,,,,,,,-0.023,4.392,7.547,-4.872,-0.032,0.14,-0.019
-0.605,0.0347,-0.5112,0.0435,0.07,0.6303,0.2101,31.4,100096.0,,,,,,,
-0.6,,,,,,,,,-0.024,4.393,7.546,-4.872,-0.032,-0.03,-0.009
-0.595,0.0361,-0.5117,0.0454,0.07,0.7003,0.2101,31.4,100104.0,,,,,,,
-0.59,,,,,,,,,-0.024,4.393,7.546,-4.872,-0.032,-0.03,-0.009
-0.585,0.0361,-0.5112,0.0439,0.0,0.7003,0.2801,31.4,100099.0,,,,,,,
-0.58,,,,,,,,,-0.031,4.394,7.546,-4.872,-0.032,-0.28,-0.019
-0.575,0.0342,-0.5112,0.0449,0.07,0.7003,0.2801,31.3,100098.0,,,,,,,
-0.57,,,,,,,,,-0.037,4.395,7.546,-4.872,-0.032,-0.28,-0.019
-0.565,0.0352,-0.5112,0.0439,0.1401,0.7003,0.2101,31.4,100091.0,,,,,,,
-0.56,,,,,,,,,-0.046,4.395,7.546,-4.871,-0.032,-0.45,-0.019
-0.555,0.0352,-0.5103,0.043,0.1401,0.7003,0.2801,31.4,100095.0,,,,,,,
-0.55,,,,,,,,,-0.055,4.396,7.545,-4.871,-0.032,-0.45,-0.028
-0.545,0.0347,-0.5103,0.0435,0.1401,0.7703,0.2801,31.4,100093.0,,,,,,,
-0.54,,,,,,,,,-0.061,4.396,7.545,-4.871,-0.032,-0.28,-0.028
-0.535,0.0337,-0.5117,0.0439,0.1401,0.7703,0.2801,31.3,100104.0,,,,,,,
-0.53,,,,,,,,,-0.067,4.397,7.545,-4.871,-0.032,-0.28,-0.028
-0.525,0.0352,-0.5107,0.0439,0.07,0.7003,0.2801,31.3,100074.0,,,,,,,
-0.52,,,,,,,,,-0.075,4.397,7.545,-4.871,-0.032,-0.45,-0.028
-0.515,0.0352,-0.5122,0.0469,0.07,0.6303,0.2801,31.4,100087.0,,,,,,,
-0.51,,,,,,,,,-0.081,4.398,7.545,-4.871,-0.032,-0.28,-0.028
-0.505,0.0342,-0.5137,0.0464,0.1401,0.6303,0.2801,31.4,100072.0,,,,,,,
-0.5,,,,,,,,,-0.084,4.398,7.544,-4.87,-0.032,-0.19,-0.028
-0.495,0.0356,-0.5195,0.0444,0.1401,0.6303,0.2801,31.3,100101.0,,,,,,,
-0.49,,,,,,,,,-0.083,4.399,7.544,-4.87,-0.032,-0.03,-0.028
-0.485,0.0361,-0.5107,0.0444,0.1401,0.7003,0.2801,31.4,100087.0,,,,,,,
-0.48,,,,,,,,,-0.083,4.399,7.544,-4.87,-0.032,-0.03,-0.028
-0.475,0.0327,-0.5107,0.0518,0.07,0.7703,0.2801,31.4,100090.0,,,,,,,
-0.47,,,,,,,,,-0.079,4.4,7.544,-4.87,-0.032,0.14,-0.028
-0.465,0.0371,-0.5107,0.0444,0.07,0.8403,0.3501,31.4,100092.0,,,,,,,
-0.46,,,,,,,,,-0.073,4.4,7.543,-4.87,-0.032,0.22,-0.037
-0.455,0.0327,-0.5107,0.0444,0.07,0.8403,0.2801,31.4,100088.0,,,,,,,
-0.45,,,,,,,,,-0.068,4.401,7.543,-4.87,-0.032,0.22,-0.037
-0.445,0.0366,-0.5107,0.0415,0.07,0.9104,0.2801,31.4,100097.0,,,,,,,
-0.44,,,,,,,,,-0.059,4.401,7.543,-4.87,-0.032,0.39,-0.037
-0.435,0.0356,-0.5122,0.0444,0.0,0.7703,0.2801,31.4,100097.0,,,,,,,
-0.43,,,,,,,,,-0.05,4.402,7.543,-4.869,-0.032,0.39,-0.037
-0.425,0.0337,-0.5107,0.042,0.1401,0.6303,0.2801,31.3,100086.0,,,,,,,
-0.42,,,,,,,,,-0.045,4.403,7.542,-4.869,-0.032,0.22,-0.037
-0.415,0.0342,-0.5103,0.0449,0.07,0.5602,0.2101,31.4,100090.0,,,,,,,
-0.41,,,,,,,,,-0.04,4.403,7.542,-4.869,-0.032,0.22,-0.037
-0.405,0.0352,-0.5107,0.043,0.1401,0.4202,0.2101,31.4,100095.0,,,,,,,
-0.4,,,,,,,,,-0.036,4.404,7.542,-4.869,-0.032,0.22,-0.037
-0.395,0.0352,-0.5127,0.0425,0.07,0.5602,0.2801,31.4,100112.0,,,,,,,
-0.39,,,,,,,,,-0.031,4.404,7.542,-4.869,-0.032,0.22,-0.037
-0.385,0.0356,-0.5122,0.0464,0.0,0.7003,0.2801,31.3,100091.0,,,,,,,
-0.38,,,,,,,,,-0.03,4.405,7.542,-4.869,-0.032,0.05,-0.037
-0.375,0.0356,-0.5127,0.0444,0.07,0.8403,0.3501,31.4,100098.0,,,,,,,
-0.37,,,,,,,,,-0.029,4.405,7.541,-4.869,-0.032,0.05,-0.037
-0.365,0.0361,-0.5127,0.0444,0.1401,0.7703,0.2801,31.4,100090.0,,,,,,,
-0.36,,,,,,,,,-0.033,4.406,7.541,-4.869,-0.032,-0.2,-0.037
-0.355,0.0342,-0.5137,0.0439,0.07,0.7703,0.2801,31.4,100094.0,,,,,,,
-0.35,,,,,,,,,-0.037,4.406,7.541,-4.868,-0.032,-0.2,-0.009
-0.345,0.0371,-0.5122,0.043,0.1401,0.7003,0.2101,31.4,100102.0,,,,,,,
-0.34,,,,,,,,,-0.039,4.407,7.541,-4.868,-0.032,-0.11,-0.009
-0.335,0.0327,-0.5117,0.0449,0.1401,0.5602,0.2101,31.3,100095.0,,,,,,,
-0.33,,,,,,,,,-0.041,4.407,7.541,-4.868,-0.032,-0.11,-0.009
-0.325,0.0361,-0.5103,0.0469,0.1401,0.4202,0.2101,31.4,100103.0,,,,,,,
-0.32,,,,,,,,,-0.045,4.408,7.54,-4.868,-0.032,-0.19,-0.009
-0.315,0.0356,-0.5107,0.0444,0.07,0.4202,0.2101,31.4,100111.0,,,,,,,
-0.31,,,,,,,,,-0.049,4.408,7.54,-4.868,-0.032,-0.2,-0.009
-0.305,0.0337,-0.5117,0.0425,0.07,0.5602,0.2801,31.4,100085.0,,,,,,,
-0.3,,,,,,,,,-0.058,4.409,7.54,-4.868,-0.032,-0.45,-0.009
-0.295,0.0376,-0.5127,0.0444,0.07,0.6303,0.2801,31.3,100091.0,,,,,,,
-0.29,,,,,,,,,-0.061,4.409,7.54,-4.868,-0.032,-0.19,-0.009
-0.285,0.0356,-0.5132,0.043,0.07,0.8403,0.2801,31.4,100103.0,,,,,,,
-0.28,,,,,,,,,-0.064,4.41,7.54,-4.867,-0.032,-0.19,-0.009
-0.275,0.0361,-0.5117,0.0454,0.07,0.9804,0.3501,31.4,100099.0,,,,,,,
-0.27,,,,,,,,,-0.067,4.41,7.539,-4.867,-0.032,-0.19,-0.009
-0.265,0.0327,-0.5117,0.043,0.07,0.9804,0.3501,31.4,100093.0,,,,,,,
-0.26,,,,,,,,,-0.077,4.411,7.539,-4.867,-0.032,-0.52,-0.019
-0.255,0.0332,-0.5122,0.0439,0.1401,0.8403,0.3501,31.4,100096.0,,,,,,,
-0.25,,,,,,,,,-0.087,4.412,7.539,-4.867,-0.032,-0.52,-0.019
-0.245,0.0327,-0.5132,0.0464,0.07,0.7003,0.2101,31.4,100094.0,,,,,,,
-0.24,,,,,,,,,-0.092,4.412,7.539,-4.867,-0.032,-0.27,-0.019
-0.235,0.0361,-0.5112,0.0449,0.1401,0.4202,0.2101,31.4,100098.0,,,,,,,
-0.23,,,,,,,,,-0.096,4.413,7.538,-4.867,-0.032,-0.27,-0.019
-0.225,0.0332,-0.5112,0.0435,0.1401,0.3501,0.2101,31.4,100102.0,,,,,,,
-0.22,,,,,,,,,-0.1,4.413,7.538,-4.866,-0.032,-0.27,-0.019
-0.215,0.0361,-0.5107,0.0454,0.07,0.3501,0.2101,31.3,100095.0,,,,,,,
-0.21,,,,,,,,,-0.104,4.413,7.538,-4.866,-0.032,-0.27,-0.019
-0.205,0.0342,-0.5122,0.043,0.1401,0.4202,0.2101,31.4,100084.0,,,,,,,
-0.2,,,,,,,,,-0.108,4.414,7.538,-4.866,-0.032,-0.27,-0.019
-0.195,0.0361,-0.5117,0.0459,0.07,0.6303,0.2801,31.4,100080.0,,,,,,,
-0.19,,,,,,,,,-0.112,4.414,7.538,-4.866,-0.033,-0.27,-0.019
-0.185,0.0361,-0.5122,0.0439,0.07,0.7003,0.3501,31.4,100085.0,,,,,,,
-0.18,,,,,,,,,-0.114,4.415,7.537,-4.866,-0.033,-0.19,-0.019
-0.175,0.0352,-0.5103,0.0459,0.07,0.8403,0.3501,31.4,100087.0,,,,,,,
-0.17,,,,,,,,,-0.114,4.415,7.537,-4.866,-0.033,-0.1,-0.019
-0.165,0.0342,-0.5137,0.0444,0.0,0.9104,0.3501,31.4,100092.0,,,,,,,
-0.16,,,,,,,,,-0.114,4.416,7.537,-4.866,-0.033,-0.1,-0.019
-0.155,0.0332,-0.5122,0.0435,0.07,0.7003,0.3501,31.4,100088.0,,,,,,,
-0.15,,,,,,,,,-0.11,4.416,7.537,-4.866,-0.032,0.06,-0.019
-0.145,0.0342,-0.5127,0.0439,0.0,0.5602,0.3501,31.4,100098.0,,,,,,,
-0.14,,,,,,,,,-0.1,4.417,7.536,-4.866,-0.032,0.4,-0.019
-0.135,0.0356,-0.5122,0.0449,0.1401,0.4902,0.2801,31.4,100101.0,,,,,,,
-0.13,,,,,,,,,-0.089,4.418,7.536,-4.866,-0.032,0.4,-0.009
-0.125,0.0342,-0.5278,0.0493,0.07,0.2801,0.2801,31.4,100112.0,,,,,,,
-0.12,,,,,,,,,-0.079,4.418,7.536,-4.866,-0.033,0.4,-0.009
-0.115,0.0479,-0.6221,0.0522,0.2801,0.2101,0.1401,31.3,100096.0,,,,,,,
-0.11,,,,,,,,,-0.069,4.418,7.536,-4.866,-0.033,0.4,-0.009
-0.105,-0.106,-2.3789,0.2861,0.1401,2.381,1.2605,31.4,100017.0,,,,,,,
-0.1,,,,,,,,,-0.066,4.419,7.536,-4.866,-0.033,0.06,-0.009
-0.095,-0.3506,-7.687,-0.3418,-24.6499,4.6919,-4.4118,31.4,100168.0,,,,,,,
-0.09,,,,,,,,,-0.064,4.42,7.535,-4.865,-0.032,0.06,0.0
-0.085,-0.1133,-9.5396,-0.5908,-16.3165,0.0,-0.9104,31.3,100119.0,,,,,,,
-0.08,,,,,,,,,-0.068,4.438,7.527,-4.861,-0.041,-0.27,0.019
-0.075,0.438,-9.6221,0.1621,4.0616,9.1036,2.7311,31.3,100079.0,,,,,,,
-0.07,,,,,,,,,-0.073,4.449,7.521,-4.86,-0.049,-0.44,0.29
-0.065,0.0889,-9.5649,-0.2363,-5.7423,11.1345,-4.2017,31.4,100112.0,,,,,,,
-0.06,,,,,,,,,-0.059,4.451,7.521,-4.858,-0.041,-0.44,2.093
-0.055,0.1626,-9.4746,-0.0762,-0.07,17.8571,-1.0504,31.4,100088.0,,,,,,,
-0.05,,,,,,,,,0.285,4.459,7.521,-4.851,-0.038,-0.69,35.708
-0.045,0.1997,-9.582,-0.1362,-3.3613,20.6583,4.8319,31.4,100128.0,,,,,,,
-0.04,,,,,,,,,1.645,4.467,7.521,-4.843,-0.028,-0.69,137.275
-0.035,0.1367,-9.6987,-0.208,-7.423,33.5434,2.8011,31.4,100104.0,,,,,,,
-0.03,,,,,,,,,3.327,4.479,7.518,-4.838,-0.014,-1.61,171.479
-0.025,0.1616,-9.8398,-0.1826,2.8711,32.0728,1.2605,31.3,100114.0,,,,,,,
-0.02,,,,,,,,,5.036,4.498,7.514,-4.827,0.004,-0.93,172.721
-0.015,0.1108,-9.9751,-0.1055,1.9608,40.5462,3.0812,31.4,100099.0,,,,,,,
-0.01,,,,,,,,,6.735,4.51,7.514,-4.815,0.026,-1.61,173.207
-0.005,0.0332,-10.0903,0.0679,3.5714,49.7199,4.6919,31.4,100125.0,,,,,,,
0.0,,,,,,,,,8.435,4.526,7.513,-4.801,0.054,-1.61,173.534
0.005,0.0508,-10.1162,-0.0215,1.5406,33.4734,2.3109,31.4,100119.0,,,,,,,
0.01,,,,,,,,,10.179,9.999,0.002,0.043,0.003,-1.61,174.3
0.015,0.022,-10.1699,0.311,1.5406,24.5098,-1.0504,31.4,100083.0,,,,,,,
0.02,,,,,,,,,11.936,9.999,0.003,0.072,0.005,-1.61,175.767
0.025,0.0327,-10.2803,0.2368,3.4314,12.2549,-2.7311,31.4,100127.0,,,,,,,
0.03,,,,,,,,,13.721,9.999,0.004,0.093,0.004,-1.61,178.467
0.035,0.1553,-10.3921,0.8594,2.7311,-25.5602,-7.7731,31.4,100060.0,,,,,,,
0.04,,,,,,,,,15.532,9.999,0.006,0.103,0.001,-1.77,181.055
0.045,0.1436,-10.5063,0.1641,-3.0112,-40.4762,-8.1933,31.4,100096.0,,,,,,,
0.05,,,,,,,,,17.365,9.999,0.008,0.08,-0.005,-1.77,183.26
0.055,0.251,-10.7192,0.7734,-7.7031,-56.8627,-7.3529,31.4,100126.0,,,,,,,
0.06,,,,,,,,,19.202,9.999,0.004,0.045,-0.012,-0.93,183.755
0.065,0.2183,-10.8438,0.4268,-16.8067,-73.4594,-8.9636,31.3,100100.0,,,,,,,
0.07,,,,,,,,,21.05,9.999,-0.002,-0.004,-0.019,-1.77,184.783
0.075,0.2051,-10.9487,-0.1982,-21.5686,-81.1625,-7.7031,31.3,100074.0,,,,,,,
0.08,,,,,,,,,22.919,9.999,-0.017,-0.068,-0.027,-0.58,186.895
0.085,0.1079,-10.854,-1.8418,-18.2073,-69.0476,-5.8123,31.4,100088.0,,,,,,,
0.09,,,,,,,,,24.81,9.998,-0.037,-0.139,-0.034,-0.58,189.034
0.095,0.4248,-10.9565,-0.1382,8.5434,-51.5406,-7.3529,31.4,100081.0,,,,,,,
0.1,,,,,,,,,26.722,9.997,-0.053,-0.2,-0.039,-0.25,191.22
0.105,0.0635,-11.0684,-0.2505,13.3754,-28.7115,1.5406,31.4,100085.0,,,,,,,
0.11,,,,,,,,,28.675,9.996,-0.047,-0.245,-0.045,0.43,195.294
0.115,0.4102,-11.1694,-0.0664,17.9272,5.3221,6.0224,31.4,100066.0,,,,,,,
0.12,,,,,,,,,30.652,9.996,-0.036,-0.27,-0.044,0.43,197.676
0.125,-0.0552,-11.0884,0.4253,6.8627,18.8375,7.493,31.3,100036.0,,,,,,,
0.13,,,,,,,,,32.631,9.996,-0.021,-0.266,-0.038,0.68,197.872
0.135,-0.1064,-11.0503,0.8652,12.395,16.3866,9.3838,31.4,100072.0,,,,,,,
0.14,,,,,,,,,34.628,9.996,-0.015,-0.25,-0.032,0.68,199.685
0.145,-0.3247,-11.0498,1.0234,0.4902,17.6471,10.7843,31.4,100042.0,,,,,,,
0.15,,,,,,,,,36.626,9.997,-0.005,-0.236,-0.024,1.01,199.834
0.155,0.0459,-11.0513,0.3408,-17.2969,-53.3613,-2.3109,31.4,100033.0,,,,,,,
0.16,,,,,,,,,38.642,9.997,-0.006,-0.221,-0.015,1.6,201.619
0.165,-0.3193,-10.9341,0.0151,-31.3025,-30.6022,-16.2465,31.4,100029.0,,,,,,,
0.17,,,,,,,,,40.659,9.996,-0.021,-0.268,-0.017,1.77,201.628
0.175,0.1675,-10.8457,-0.7266,-25.4902,0.2801,-10.1541,31.4,100054.0,,,,,,,
0.18,,,,,,,,,42.675,9.995,-0.049,-0.295,-0.032,2.27,201.628
0.185,0.5542,-10.8506,-1.5718,-8.6134,14.3557,-5.7423,31.3,100027.0,,,,,,,
0.19,,,,,,,,,44.692,9.995,-0.071,-0.295,-0.042,3.28,201.628
0.195,0.3296,-10.7886,-0.1133,6.2325,114.0756,-4.902,31.4,100056.0,,,,,,,
0.2,,,,,,,,,46.708,9.995,-0.079,-0.282,-0.048,4.29,201.628
0.205,0.6484,-10.8027,-0.4902,13.5854,179.972,6.5126,31.3,100036.0,,,,,,,
0.21,,,,,,,,,48.724,9.997,-0.074,-0.183,-0.053,4.29,201.619
0.215,0.4795,-10.8032,0.3853,14.0056,249.5798,22.0588,31.4,100020.0,,,,,,,
0.22,,,,,,,,,50.718,9.999,-0.062,-0.027,-0.048,4.8,199.405
0.225,0.2095,-10.5464,1.1499,-1.6807,193.8375,18.4174,31.4,100022.0,,,,,,,
0.23,,,,,,,,,52.697,9.998,-0.049,0.19,-0.031,4.8,197.807
0.235,0.3125,-10.5327,-0.4604,-28.5014,169.6078,11.2745,31.4,100005.0,,,,,,,
0.24,,,,,,,,,54.674,9.993,-0.05,0.359,-0.016,5.05,197.714
0.245,-0.0229,-10.874,0.3032,-30.7423,136.9748,10.4342,31.3,100017.0,,,,,,,
0.25,,,,,,,,,56.643,9.986,-0.075,0.506,-0.006,5.38,196.901
0.255,0.2651,-10.7861,0.3125,-0.6303,123.2493,10.3641,31.3,100029.0,,,,,,,
0.26,,,,,,,,,58.612,9.979,-0.102,0.625,0.002,5.55,196.901
0.265,0.1338,-10.8662,-0.3062,14.6359,123.4594,8.6134,31.4,99991.0,,,,,,,
0.27,,,,,,,,,60.581,9.972,-0.103,0.732,0.01,5.55,196.891
0.275,0.3003,-10.8013,-0.189,-6.6527,116.6667,4.3417,31.3,99982.0,,,,,,,
0.28,,,,,,,,,62.549,9.964,-0.09,0.84,0.015,5.97,196.891
0.285,0.1533,-10.7749,0.1538,-22.6891,111.2745,10.2941,31.4,99988.0,,,,,,,
0.29,,,,,,,,,64.518,9.955,-0.096,0.941,0.019,6.14,196.863
0.295,0.0962,-10.8091,0.1064,-8.6835,109.3137,18.6975,31.3,99999.0,,,,,,,
0.3,,,,,,,,,66.487,9.945,-0.116,1.037,0.028,6.39,196.863
0.305,0.2681,-10.8433,-0.1152,2.3109,108.4034,12.395,31.3,99981.0,,,,,,,
0.31,,,,,,,,,68.455,9.934,-0.123,1.132,0.044,7.4,196.863
0.315,0.2134,-10.7578,-0.1138,-10.4342,104.0616,5.042,31.3,99967.0,,,,,,,
0.32,,,,,,,,,70.424,9.923,-0.12,1.225,0.053,7.91,196.863
0.325,0.1553,-10.6802,0.1064,-17.6471,99.0896,12.2549,31.4,99976.0,,,,,,,
0.33,,,,,,,,,72.392,9.912,-0.13,1.315,0.057,8.58,196.863
0.335,0.1479,-10.7354,-0.0039,-11.6947,96.0084,22.549,31.3,99962.0,,,,,,,
0.34,,,,,,,,,74.361,9.9,-0.145,1.401,0.069,8.84,196.863
0.345,0.2891,-10.7896,-0.0103,-8.2633,92.9972,15.4062,31.4,99950.0,,,,,,,
0.35,,,,,,,,,76.326,9.887,-0.153,1.483,0.088,9.34,196.574
0.355,0.1343,-10.7173,-0.0269,-14.916,89.2157,6.7927,31.4,99948.0,,,,,,,
0.36,,,,,,,,,78.292,9.875,-0.16,1.563,0.101,9.42,196.639
0.365,0.1816,-10.6855,0.0596,-16.0364,85.2241,13.8655,31.4,99930.0,,,,,,,
0.37,,,,,,,,,80.255,9.862,-0.173,1.64,0.108,9.85,196.359
0.375,0.2119,-10.7734,-0.0098,-13.5854,81.5126,22.9692,31.3,99952.0,,,,,,,
0.38,,,,,,,,,82.215,9.849,-0.186,1.713,0.121,10.6,196.032
0.385,0.2461,-10.8013,-0.0117,-16.3866,78.0112,17.0168,31.4,99935.0,,,,,,,
0.39,,,,,,,,,84.175,9.836,-0.196,1.783,0.141,11.02,196.032
0.395,0.1436,-10.7568,0.0127,-17.6471,74.6499,10.3641,31.4,99926.0,,,,,,,
0.4,,,,,,,,,86.135,9.823,-0.209,1.849,0.157,11.86,196.032
0.405,0.2041,-10.7817,0.0547,-14.6359,71.1485,16.8768,31.3,99896.0,,,,,,,
0.41,,,,,,,,,88.095,9.811,-0.224,1.913,0.167,12.03,196.013
0.415,0.2129,-10.8594,-0.022,-17.0868,67.9272,22.409,31.3,99902.0,,,,,,,
0.42,,,,,,,,,90.054,9.798,-0.235,1.974,0.182,12.2,196.013
0.425,0.2344,-10.876,0.0186,-20.7283,64.4258,16.5966,31.4,99907.0,,,,,,,
0.43,,,,,,,,,92.017,9.786,-0.248,2.032,0.203,13.3,196.331
0.435,0.1597,-10.853,0.0527,-17.8571,61.4846,12.6751,31.3,99899.0,,,,,,,
0.44,,,,,,,,,93.981,9.773,-0.264,2.086,0.219,13.72,196.49
0.445,0.2144,-10.9131,0.0254,-14.986,58.3333,17.577,31.3,99897.0,,,,,,,
0.45,,,,,,,,,95.945,9.761,-0.279,2.138,0.232,14.05,196.49
0.455,0.209,-10.9741,-0.0171,-19.888,54.1317,19.3978,31.3,99874.0,,,,,,,
0.46,,,,,,,,,97.913,9.75,-0.29,2.188,0.248,15.65,196.863
0.465,0.2217,-10.9683,0.0728,-20.7283,50.7703,14.2857,31.4,99889.0,,,,,,,
0.47,,,,,,,,,99.891,9.738,-0.305,2.234,0.267,16.07,197.854
0.475,0.1919,-10.9756,0.0635,-15.4762,48.9496,12.605,31.3,99867.0,,,,,,,
0.48,,,,,,,,,101.87,9.727,-0.322,2.276,0.281,16.33,197.975
0.485,0.2246,-11.0298,0.0156,-14.986,45.6583,15.7563,31.4,99867.0,,,,,,,
0.49,,,,,,,,,103.852,9.717,-0.334,2.317,0.294,16.49,198.293
0.495,0.2295,-11.0615,0.0308,-18.9776,41.3165,15.2661,31.3,99855.0,,,,,,,
0.5,,,,,,,,,105.84,9.707,-0.346,2.356,0.309,16.58,199.003
0.505,0.2148,-11.0986,0.0972,-17.507,38.1653,11.4146,31.3,99855.0,,,,,,,
0.51,,,,,,,,,107.84,9.697,-0.36,2.391,0.324,17.17,200.059
0.515,0.2129,-11.127,0.0615,-13.2353,35.4342,11.0644,31.3,99850.0,,,,,,,
0.52,,,,,,,,,109.84,9.688,-0.374,2.422,0.336,18.43,200.171
0.525,0.2339,-11.1763,0.0327,-14.2157,31.2325,12.3249,31.3,99825.0,,,,,,,
0.53,,,,,,,,,111.84,9.68,-0.385,2.452,0.347,19.02,200.199
0.535,0.2388,-11.2217,0.0864,-16.1064,27.1709,10.5042,31.3,99844.0,,,,,,,
0.54,,,,,,,,,113.851,9.673,-0.396,2.478,0.359,19.02,201.236
0.545,0.2256,-11.3267,0.0605,-8.6835,19.8179,7.423,31.3,99829.0,,,,,,,
0.55,,,,,,,,,115.868,9.666,-0.408,2.501,0.371,20.03,201.843
0.555,0.248,-11.3809,0.0669,-10.8543,15.4062,7.1429,31.3,99818.0,,,,,,,
0.56,,,,,,,,,117.891,9.661,-0.415,2.517,0.378,20.03,202.553
0.565,0.2554,-11.4263,0.1206,-10.8543,11.1345,5.112,31.3,99830.0,,,,,,,
0.57,,,,,,,,,119.92,9.657,-0.424,2.529,0.386,20.45,203.095
0.575,0.2324,-11.4653,0.1069,-5.6022,6.0224,3.0812,31.3,99791.0,,,,,,,
0.58,,,,,,,,,121.958,9.654,-0.433,2.538,0.392,20.96,204.039
0.585,0.2354,-11.5298,0.0747,-3.7815,1.5406,2.0308,31.3,99801.0,,,,,,,
0.59,,,,,,,,,124.005,9.653,-0.438,2.543,0.396,22.14,204.908
0.595,0.2368,-11.5703,0.0928,-7.493,-2.1008,0.5602,31.3,99815.0,,,,,,,
0.6,,,,,,,,,126.071,9.652,-0.441,2.544,0.398,22.22,206.916
0.605,0.2456,-11.6362,0.1167,-2.1008,-6.0924,-1.5406,31.3,99798.0,,,,,,,
0.61,,,,,,,,,128.148,9.652,-0.448,2.542,0.4,22.56,207.953
0.615,0.2329,-11.6655,0.0918,1.1204,-9.7339,-3.5014,31.3,99809.0,,,,,,,
0.62,,,,,,,,,130.233,9.654,-0.451,2.536,0.4,23.15,208.822
0.625,0.2466,-11.6924,0.0815,0.8403,-13.2353,-4.4118,31.4,99801.0,,,,,,,
0.63,,,,,,,,,132.325,9.656,-0.451,2.528,0.397,23.4,209.57
0.635,0.2485,-11.7075,0.1191,0.2101,-17.7871,-5.3221,31.3,99781.0,,,,,,,
0.64,,,,,,,,,134.43,9.659,-0.451,2.516,0.393,23.9,210.803
0.645,0.2319,-11.7178,0.1084,3.9216,-22.409,-6.7927,31.3,99782.0,,,,,,,
0.65,,,,,,,,,136.542,9.663,-0.452,2.5,0.389,24.58,211.578
0.655,0.2393,-11.7354,0.0879,6.7227,-25.9804,-8.2633,31.3,99767.0,,,,,,,
0.66,,,,,,,,,138.666,9.669,-0.45,2.481,0.383,24.58,212.84
0.665,0.2441,-11.7349,0.0928,4.972,-30.6022,-8.8936,31.3,99762.0,,,,,,,
0.67,,,,,,,,,140.796,9.675,-0.446,2.459,0.376,24.83,213.4
0.675,0.2393,-11.7231,0.1138,6.2325,-34.6639,-9.1737,31.3,99743.0,,,,,,,
0.68,,,,,,,,,142.93,9.682,-0.443,2.432,0.369,24.83,213.914
0.685,0.2432,-11.7329,0.1064,10.4342,-38.9356,-10.2241,31.3,99744.0,,,,,,,
0.69,,,,,,,,,145.067,9.69,-0.439,2.403,0.361,26.18,214.204
0.695,0.2295,-11.7134,0.0674,13.0952,-44.1176,-11.4846,31.3,99732.0,,,,,,,
0.7,,,,,,,,,147.205,9.699,-0.432,2.369,0.351,26.26,214.4
0.705,0.2407,-11.6758,0.0947,11.1345,-48.6695,-11.8347,31.4,99741.0,,,,,,,
0.71,,,,,,,,,149.344,9.709,-0.423,2.332,0.34,27.45,214.4
0.715,0.2324,-11.6577,0.0991,10.5742,-53.1513,-11.7647,31.3,99723.0,,,,,,,
0.72,,,,,,,,,151.482,9.719,-0.415,2.29,0.33,27.87,214.4
0.725,0.2339,-11.647,0.0791,16.8067,-57.7731,-12.8852,31.3,99700.0,,,,,,,
0.73,,,,,,,,,153.619,9.73,-0.407,2.245,0.32,29.39,214.4
0.735,0.2305,-11.606,0.064,15.4062,-61.2045,-13.7955,31.3,99710.0,,,,,,,
0.74,,,,,,,,,155.757,9.743,-0.394,2.195,0.307,29.47,214.4
0.745,0.2461,-11.582,0.0977,15.5462,-67.0168,-12.8852,31.3,99692.0,,,,,,,
0.75,,,,,,,,,157.893,9.755,-0.383,2.143,0.295,29.64,214.316
0.755,0.2227,-11.5674,0.0835,14.8459,-70.7283,-12.6751,31.3,99680.0,,,,,,,
0.76,,,,,,,,,160.021,9.768,-0.371,2.085,0.283,30.4,213.596
0.765,0.2363,-11.5352,0.0371,15.2661,-75.7003,-14.1457,31.4,99660.0,,,,,,,
0.77,,,,,,,,,162.146,9.782,-0.359,2.025,0.272,31.16,213.251
0.775,0.2178,-11.4985,0.0771,12.465,-78.4314,-14.986,31.3,99682.0,,,,,,,
0.78,,,,,,,,,164.268,9.796,-0.348,1.96,0.259,32.25,213.045
0.785,0.2261,-11.478,0.0752,15.4062,-81.6527,-13.8655,31.4,99655.0,,,,,,,
0.79,,,,,,,,,166.382,9.81,-0.338,1.892,0.246,33.09,212.26
0.795,0.2134,-11.4595,0.0283,12.1849,-85.4342,-13.8655,31.3,99642.0,,,,,,,
0.8,,,,,,,,,168.491,9.824,-0.326,1.822,0.234,33.77,211.803
0.805,0.2188,-11.4297,0.0356,10.9944,-89.0756,-14.986,31.3,99630.0,,,,,,,
0.81,,,,,,,,,170.597,9.838,-0.317,1.748,0.223,34.61,211.522
0.815,0.2188,-11.4077,0.0464,13.7955,-93.8375,-14.7059,31.3,99621.0,,,,,,,
0.82,,,,,,,,,172.696,9.852,-0.309,1.671,0.211,34.78,210.906
0.825,0.2012,-11.3877,0.0459,10.3641,-97.8992,-13.4454,31.3,99611.0,,,,,,,
0.83,,,,,,,,,174.787,9.866,-0.298,1.59,0.198,36.47,210.205
0.835,0.1924,-11.3638,0.0273,10.3641,-100.1401,-13.3053,31.3,99596.0,,,,,,,
0.84,,,,,,,,,176.875,9.879,-0.29,1.505,0.188,36.89,209.813
0.845,0.188,-11.3599,0.0151,8.8235,-103.9916,-13.9356,31.3,99586.0,,,,,,,
0.85,,,,,,,,,178.958,9.893,-0.281,1.418,0.177,37.99,209.458
0.855,0.1909,-11.3721,0.0195,8.6835,-108.6134,-12.8852,31.3,99563.0,,,,,,,
0.86,,,,,,,,,181.035,9.906,-0.275,1.328,0.167,39.0,208.888
0.865,0.1846,-11.3921,0.0225,4.5518,-114.4958,-10.084,31.3,99549.0,,,,,,,
0.87,,,,,,,,,183.107,9.918,-0.268,1.234,0.157,39.76,208.467
0.875,0.1724,-11.2935,0.0293,6.9328,-118.4174,-9.8039,31.3,99560.0,,,,,,,
0.88,,,,,,,,,185.176,9.93,-0.264,1.134,0.15,40.6,208.168
0.885,0.1689,-11.2651,0.0249,3.2213,-122.3389,-8.5434,31.3,99526.0,,,,,,,
0.89,,,,,,,,,187.243,9.942,-0.258,1.031,0.144,41.87,208.084
0.895,0.1938,-11.252,0.0244,-0.6303,-127.7311,-6.8627,31.3,99514.0,,,,,,,
0.9,,,,,,,,,189.307,9.952,-0.255,0.924,0.139,42.71,207.785
0.905,0.189,-11.2334,0.0386,-1.4006,-131.4426,-5.1821,31.3,99521.0,,,,,,,
0.91,,,,,,,,,191.369,9.962,-0.255,0.813,0.135,44.66,207.626
0.915,0.1875,-11.2119,0.0591,-4.3417,-134.0336,-4.2717,31.3,99507.0,,,,,,,
0.92,,,,,,,,,193.43,9.971,-0.255,0.698,0.134,44.91,207.552
0.925,0.1733,-11.1953,0.0352,-2.1709,-138.3754,-4.1317,31.3,99498.0,,,,,,,
0.93,,,,,,,,,195.477,9.978,-0.258,0.581,0.133,45.84,206.281
0.935,0.1904,-11.1636,0.042,-2.8711,-142.1569,-3.7815,31.3,99505.0,,,,,,,
0.94,,,,,,,,,197.518,9.985,-0.259,0.46,0.132,47.78,205.739
0.945,0.1924,-11.1548,0.0439,-7.423,-145.6583,-2.3109,31.3,99487.0,,,,,,,
0.95,,,,,,,,,199.556,9.99,-0.261,0.336,0.132,48.2,205.487
0.955,0.1782,-11.1499,0.0547,-9.0336,-148.6695,-1.4706,31.3,99485.0,,,,,,,
0.96,,,,,,,,,201.59,9.993,-0.266,0.209,0.134,48.79,205.132
0.965,0.1973,-11.1152,0.061,-5.8123,-153.5714,-2.521,31.3,99482.0,,,,,,,
0.97,,,,,,,,,203.618,9.995,-0.273,0.079,0.136,49.38,204.721
0.975,0.1963,-11.0815,0.0645,-6.6527,-159.3137,-2.3109,31.3,99484.0,,,,,,,
0.98,,,,,,,,,205.643,9.995,-0.277,-0.055,0.137,49.55,204.403
0.985,0.1895,-11.0713,0.0664,-6.5126,-157.6331,-0.5602,31.3,99460.0,,,,,,,
0.99,,,,,,,,,207.66,9.993,-0.281,-0.194,0.138,50.14,203.796
0.995,0.2139,-11.0635,0.0781,-11.3445,-157.2829,-1.1204,31.3,99457.0,,,,,,,
1.0,,,,,,,,,209.675,9.989,-0.286,-0.332,0.141,51.07,203.628
1.005,0.2271,-11.0298,0.1011,-10.2941,-163.2353,-2.381,31.3,99434.0,,,,,,,
1.01,,,,,,,,,211.688,9.983,-0.294,-0.469,0.144,51.24,203.534
1.015,0.1875,-11.0088,0.0688,-8.4034,-168.3473,-1.4706,31.3,99440.0,,,,,,,
1.02,,,,,,,,,213.693,9.975,-0.301,-0.612,0.145,51.33,202.871
1.025,0.2168,-11.0127,0.0879,-1.6807,-172.0588,-1.3305,31.3,99454.0,,,,,,,
1.03,,,,,,,,,215.69,9.965,-0.307,-0.759,0.148,51.5,202.226
1.035,0.2241,-11.0068,0.1055,-2.8011,-171.0784,-4.2017,31.3,99443.0,,,,,,,
1.04,,,,,,,,,217.685,9.952,-0.307,-0.908,0.151,53.35,202.03
1.045,0.1968,-10.9756,0.0859,-7.3529,-171.3585,-5.4622,31.3,99434.0,,,,,,,
1.05,,,,,,,,,219.677,9.937,-0.307,-1.057,0.151,53.61,201.88
1.055,0.2407,-10.9683,0.1411,-3.2913,-174.5098,-4.3417,31.3,99437.0,,,,,,,
1.06,,,,,,,,,221.661,9.92,-0.311,-1.206,0.15,53.86,201.236
1.065,0.2373,-10.9644,0.1118,-10.8543,-176.6106,-5.5322,31.3,99448.0,,,,,,,
1.07,,,,,,,,,223.641,9.901,-0.312,-1.358,0.15,54.79,200.909
1.075,0.2495,-10.9448,0.1567,-8.6835,-177.0308,-8.4034,31.3,99443.0,,,,,,,
1.08,,,,,,,,,225.619,9.878,-0.319,-1.51,0.149,54.79,200.834
1.085,0.2021,-10.9258,0.1455,-3.1513,-176.9608,-9.5938,31.3,99454.0,,,,,,,
1.09,,,,,,,,,227.594,9.854,-0.323,-1.663,0.145,54.79,200.797
1.095,0.2554,-10.9331,0.1436,0.9104,-175.7703,-10.5042,31.3,99437.0,,,,,,,
1.1,,,,,,,,,229.563,9.827,-0.323,-1.816,0.141,54.79,200.199
1.105,0.2432,-10.9238,0.1323,3.2913,-177.6611,-13.3053,31.3,99453.0,,,,,,,
1.11,,,,,,,,,231.528,9.798,-0.319,-1.967,0.137,54.79,200.059
1.115,0.2178,-10.8916,0.1519,-4.902,-178.5014,-15.9664,31.3,99459.0,,,,,,,
1.12,,,,,,,,,233.491,9.766,-0.312,-2.119,0.131,54.79,199.984
1.125,0.2212,-10.8862,0.126,-2.521,-175.4902,-16.6667,31.3,99442.0,,,,,,,
1.13,,,,,,,,,235.448,9.732,-0.312,-2.272,0.121,54.79,199.61
1.135,0.2319,-10.8721,0.1216,4.4818,-175.4902,-17.437,31.3,99443.0,,,,,,,
1.14,,,,,,,,,237.401,9.696,-0.309,-2.421,0.11,54.79,199.386
1.145,0.228,-10.856,0.1318,0.9104,-175.2801,-19.6078,31.3,99427.0,,,,,,,
1.15,,,,,,,,,239.351,9.658,-0.3,-2.57,0.101,54.79,199.246
1.155,0.2017,-10.8398,0.1484,-2.521,-171.9888,-20.2381,31.3,99429.0,,,,,,,
1.16,,,,,,,,,241.299,9.618,-0.294,-2.718,0.089,54.79,199.208
1.165,0.2153,-10.8369,0.1367,6.0224,-172.9692,-19.888,31.3,99417.0,,,,,,,
1.17,,,,,,,,,243.238,9.576,-0.29,-2.863,0.075,54.79,198.592
1.175,0.1978,-10.811,0.1489,5.8123,-178.7815,-21.5686,31.3,99417.0,,,,,,,
1.18,,,,,,,,,245.175,9.532,-0.28,-3.008,0.064,54.88,198.489
1.185,0.1899,-10.7847,0.1406,15.9664,-178.5714,-20.6583,31.3,99363.0,,,,,,,
1.19,,,,,,,,,247.107,9.484,-0.269,-3.157,0.052,55.3,198.218
1.195,0.1743,-10.7773,0.1167,5.8123,-180.5322,-19.6078,31.3,99373.0,,,,,,,
1.2,,,,,,,,,249.034,9.434,-0.249,-3.305,0.043,55.97,197.91
1.205,0.1904,-10.7715,0.1484,9.4538,-178.0812,-19.1176,31.3,99351.0,,,,,,,
1.21,,,,,,,,,250.956,9.381,-0.239,-3.454,0.032,56.14,197.601
1.215,0.1655,-10.7695,0.0962,-2.9412,-178.9216,-18.9076,31.3,99317.0,,,,,,,
1.22,,,,,,,,,252.876,9.326,-0.225,-3.6,0.022,56.99,197.545
1.225,0.167,-10.7842,0.1177,7.6331,-180.2521,-17.3669,31.3,99304.0,,,,,,,
1.23,,,,,,,,,254.789,9.269,-0.222,-3.745,0.009,56.99,197.05
1.235,0.1553,-10.7681,0.1143,5.6022,-184.944,-15.4762,31.3,99298.0,,,,,,,
1.24,,,,,,,,,256.696,9.209,-0.21,-3.891,0.001,60.71,196.546
1.245,0.1689,-10.7729,0.1113,13.3754,-190.6863,-14.1457,31.3,99275.0,,,,,,,
1.25,,,,,,,,,258.602,9.145,-0.201,-4.04,-0.006,61.55,196.536
1.255,0.146,-10.7725,0.0957,11.6947,-188.2353,-13.6555,31.3,99262.0,,,,,,,
1.26,,,,,,,,,260.504,9.076,-0.186,-4.192,-0.01,62.57,196.406
1.265,0.1772,-10.7368,0.1289,5.9524,-188.0952,-11.9048,31.3,99223.0,,,,,,,
1.27,,,,,,,,,262.405,9.006,-0.172,-4.341,-0.014,65.44,196.321
1.275,0.1602,-10.731,0.1108,12.1849,-185.7143,-8.8936,31.3,99209.0,,,,,,,
1.28,,,,,,,,,264.304,8.934,-0.163,-4.489,-0.018,66.54,196.312
1.285,0.1689,-10.7363,0.1157,-7.0728,-186.6947,-6.5126,31.3,99213.0,,,,,,,
1.29,,,,,,,,,266.2,8.86,-0.151,-4.633,-0.018,67.05,196.293
1.295,0.187,-10.728,0.1123,6.0224,-185.7843,-5.9524,31.3,99217.0,,,,,,,
1.3,,,,,,,,,268.095,8.783,-0.155,-4.777,-0.024,69.0,196.256
1.305,0.1953,-10.7153,0.1406,1.6106,-191.4566,-5.042,31.3,99196.0,,,,,,,
1.31,,,,,,,,,269.987,8.704,-0.148,-4.919,-0.024,70.1,196.228
1.315,0.1597,-10.7012,0.1162,15.6162,-190.056,-3.2213,31.3,99210.0,,,,,,,
1.32,,,,,,,,,271.873,8.621,-0.146,-5.064,-0.025,73.4,195.63
1.325,0.207,-10.7046,0.1338,-7.7031,-177.7311,-3.3613,31.3,99195.0,,,,,,,
1.33,,,,,,,,,273.756,8.536,-0.133,-5.207,-0.019,73.91,195.621
1.335,0.2065,-10.6929,0.1211,4.2717,-181.3025,-4.5518,31.3,99195.0,,,,,,,
1.34,,,,,,,,,275.636,8.454,-0.138,-5.339,-0.023,74.25,195.518
1.345,0.1802,-10.6875,0.1172,17.7171,-179.8319,-3.9916,31.3,99202.0,,,,,,,
1.35,,,,,,,,,277.512,8.368,-0.134,-5.472,-0.023,74.5,195.462
1.355,0.2158,-10.7031,0.147,7.1429,-179.7619,-3.9216,31.3,99178.0,,,,,,,
1.36,,,,,,,,,279.383,8.281,-0.119,-5.603,-0.016,74.58,195.219
1.365,0.2241,-10.6973,0.123,0.9804,-182.493,-6.2325,31.3,99178.0,,,,,,,
1.37,,,,,,,,,281.25,8.192,-0.113,-5.732,-0.014,75.18,195.013
1.375,0.188,-10.689,0.1128,2.381,-180.6723,-7.2829,31.3,99175.0,,,,,,,
1.38,,,,,,,,,283.113,8.1,-0.11,-5.862,-0.016,75.69,194.985
1.385,0.2031,-10.6689,0.1416,1.8908,-180.042,-6.7927,31.3,99176.0,,,,,,,
1.39,,,,,,,,,284.973,8.006,-0.105,-5.989,-0.019,75.77,194.948
1.395,0.249,-10.6758,0.1553,16.8067,-179.8319,-7.3529,31.3,99148.0,,,,,,,
1.4,,,,,,,,,286.829,7.911,-0.101,-6.115,-0.022,75.77,194.873
1.405,0.2075,-10.6777,0.1177,14.2857,-176.1905,-10.084,31.3,99149.0,,,,,,,
1.41,,,,,,,,,288.682,7.814,-0.086,-6.238,-0.017,77.21,194.789
1.415,0.2241,-10.6504,0.0845,4.7619,-173.9496,-11.4146,31.3,99127.0,,,,,,,
1.42,,,,,,,,,290.53,7.717,-0.071,-6.358,-0.015,77.21,194.714
1.425,0.21,-10.6538,0.104,4.902,-165.5462,-11.0644,31.3,99104.0,,,,,,,
1.43,,,,,,,,,292.376,7.62,-0.062,-6.475,-0.02,77.38,194.686
1.435,0.2217,-10.6562,0.1074,0.07,-167.0168,-13.3053,31.3,99084.0,,,,,,,
1.44,,,,,,,,,294.215,7.525,-0.053,-6.584,-0.024,77.46,194.5
1.445,0.1606,-10.6299,0.0815,11.4846,-168.4174,-14.2157,31.3,99055.0,,,,,,,
1.45,,,,,,,,,296.053,7.428,-0.046,-6.694,-0.032,79.67,194.462
1.455,0.1807,-10.625,0.124,-3.2913,-163.0252,-14.2157,31.3,99023.0,,,,,,,
1.46,,,,,,,,,297.886,7.329,-0.031,-6.802,-0.035,79.75,194.331
1.465,0.2002,-10.6201,0.0894,-3.5014,-168.5574,-12.6751,31.3,99008.0,,,,,,,
1.47,,,,,,,,,299.714,7.231,-0.025,-6.906,-0.046,81.53,194.089
1.475,0.1455,-10.6274,0.0649,-12.395,-168.8375,-12.0448,31.3,98985.0,,,,,,,
1.48,,,,,,,,,301.539,7.129,-0.021,-7.012,-0.056,83.48,194.042
1.485,0.2104,-10.6021,0.1152,-9.3838,-168.1373,-10.7843,31.3,98940.0,,,,,,,
1.49,,,,,,,,,303.361,7.024,-0.022,-7.116,-0.072,85.18,193.976
1.495,0.1357,-10.5952,0.0776,10.7843,-181.4426,-8.3333,31.3,98951.0,,,,,,,
1.5,,,,,,,,,305.178,6.919,-0.023,-7.219,-0.084,87.63,193.584
1.505,0.1509,-10.5728,0.1299,0.3501,-174.5798,-7.2829,31.3,98922.0,,,,,,,
1.51,,,,,,,,,306.992,6.804,-0.012,-7.327,-0.083,90.35,193.537
1.515,0.1929,-10.5532,0.0903,-8.5434,-163.7255,-5.7423,31.3,98918.0,,,,,,,
1.52,,,,,,,,,308.803,6.691,-0.009,-7.43,-0.087,91.62,193.491
1.525,0.1763,-10.5498,0.0854,3.6415,-167.0868,-5.042,31.3,98919.0,,,,,,,
1.53,,,,,,,,,310.61,6.584,-0.012,-7.525,-0.096,93.57,193.397
1.535,0.1699,-10.5332,0.0918,2.3109,-174.93,-3.1513,31.3,98909.0,,,,,,,
1.54,,,,,,,,,312.412,6.473,-0.008,-7.621,-0.097,96.45,193.051
1.545,0.1826,-10.5063,0.1138,-3.4314,-166.6667,-2.521,31.3,98892.0,,,,,,,
1.55,,,,,,,,,314.21,6.356,-0.006,-7.719,-0.098,97.39,192.921
1.555,0.1992,-10.5078,0.0967,16.2465,-166.3866,-1.9608,31.3,98900.0,,,,,,,
1.56,,,,,,,,,316.0,6.243,-0.008,-7.81,-0.102,98.91,192.491
1.565,0.186,-10.4912,0.0918,-3.8515,-156.4426,-1.7507,31.3,98893.0,,,,,,,
1.57,,,,,,,,,317.783,6.129,0.0,-7.901,-0.093,99.17,192.117
1.575,0.1855,-10.4668,0.0918,-10.2241,-143.2773,-1.8207,31.3,98880.0,,,,,,,
1.58,,,,,,,,,319.561,6.02,-0.002,-7.984,-0.097,99.25,192.052
1.585,0.2002,-10.4829,0.0742,1.6807,-134.944,-3.5714,31.3,98881.0,,,,,,,
1.59,,,,,,,,,321.331,5.919,-0.007,-8.058,-0.105,100.02,191.734
1.595,0.1953,-10.4819,0.0649,1.5406,-134.0336,-3.6415,31.3,98918.0,,,,,,,
1.6,,,,,,,,,323.093,5.824,-0.005,-8.128,-0.107,100.78,191.248
1.605,0.1831,-10.4326,0.0718,20.9384,-115.8263,-4.6218,31.3,98959.0,,,,,,,
1.61,,,,,,,,,324.85,5.728,-0.003,-8.195,-0.108,100.78,191.22
1.615,0.2065,-10.377,0.0957,32.2129,-83.9636,-5.3221,31.3,98661.0,,,,,,,
1.62,,,,,,,,,326.599,5.645,0.008,-8.253,-0.096,100.78,190.931
1.625,0.1987,-10.2041,0.0566,3.0112,-75.3501,-7.2129,31.3,98503.0,,,,,,,
1.63,,,,,,,,,328.342,5.584,0.027,-8.295,-0.076,101.38,190.772
1.635,0.166,-9.8843,0.0513,11.6947,-90.1261,-8.5434,31.3,98371.0,,,,,,,
1.64,,,,,,,,,330.08,5.529,0.033,-8.331,-0.078,101.46,190.753
1.645,0.1841,-9.5249,0.0854,2.521,-89.916,-9.5938,31.3,98285.0,,,,,,,
1.65,,,,,,,,,331.812,5.463,0.044,-8.375,-0.075,102.39,190.464
1.655,0.1621,-9.1621,0.0601,1.9608,-85.9244,-9.8039,31.3,98239.0,,,,,,,
1.66,,,,,,,,,333.531,5.397,0.052,-8.417,-0.078,102.48,189.809
1.665,0.1357,-8.877,0.0342,11.4846,-82.2129,-10.4342,31.3,98191.0,,,,,,,
1.67,,,,,,,,,335.254,5.333,0.059,-8.458,-0.082,121.09,188.744
1.675,0.1313,-8.5718,0.127,21.3585,-77.8011,-9.8739,31.3,98148.0,,,,,,,
1.68,,,,,,,,,336.952,5.272,0.071,-8.496,-0.08,134.54,185.437
1.685,0.127,-8.1865,0.0342,35.1541,-78.0812,-9.4538,31.3,98071.0,,,,,,,
1.69,,,,,,,,,338.596,5.214,0.088,-8.532,-0.07,145.78,179.317
1.695,0.127,-7.8354,0.0562,15.7563,-69.888,-9.944,31.2,97887.0,,,,,,,
1.7,,,,,,,,,340.174,5.155,0.11,-8.567,-0.049,153.12,172.441
1.705,0.1079,-7.4844,0.0693,3.9216,-50.7003,-8.4034,31.3,97605.0,,,,,,,
1.71,,,,,,,,,341.681,5.102,0.124,-8.599,-0.043,157.04,165.499
1.715,0.1104,-6.7886,0.0815,11.6246,-37.1148,-7.3529,31.3,97383.0,,,,,,,
1.72,,,,,,,,,343.133,5.064,0.132,-8.621,-0.045,161.14,160.043
1.725,0.085,-5.8745,0.0693,5.8824,-92.507,-5.6723,31.3,97243.0,,,,,,,
1.73,,,,,,,,,344.525,5.036,0.143,-8.638,-0.04,164.81,154.204
1.735,0.0537,-4.895,0.04,14.986,-114.7059,-3.9216,31.3,97127.0,,,,,,,
1.74,,,,,,,,,345.846,4.965,0.149,-8.678,-0.04,171.39,146.832
1.745,0.0459,-3.6235,0.0708,-1.2605,-116.2465,-3.7115,31.3,97073.0,,,,,,,
1.75,,,,,,,,,347.112,4.878,0.158,-8.727,-0.033,187.13,140.115
1.755,0.0269,-2.3896,0.0625,-27.1008,-125.7003,-1.6807,31.3,97037.0,,,,,,,
1.76,,,,,,,,,348.332,4.789,0.16,-8.776,-0.038,211.3,133.397
1.765,0.0332,-1.4409,0.0713,-28.7115,-96.0784,-1.2605,31.3,97014.0,,,,,,,
1.77,,,,,,,,,349.436,4.692,0.149,-8.828,-0.061,230.36,120.084
1.775,0.0039,-0.6938,0.0684,7.0028,-59.3137,-1.6807,31.3,96994.0,,,,,,,
1.78,,,,,,,,,350.374,4.618,0.138,-8.867,-0.086,242.4,102.594
1.785,-0.0176,-0.0913,0.0928,6.4426,-111.1345,-2.0308,31.3,97002.0,,,,,,,
1.79,,,,,,,,,351.131,4.572,0.142,-8.891,-0.082,252.39,83.852
1.795,-0.0127,0.3994,0.0723,-10.3641,-118.6275,-2.0308,31.3,97013.0,,,,,,,
1.8,,,,,,,,,351.645,4.485,0.145,-8.935,-0.08,257.04,59.523
1.805,-0.042,1.0503,0.0474,-13.0952,-74.4398,-3.7115,31.3,96953.0,,,,,,,
1.81,,,,,,,,,351.922,4.392,0.142,-8.981,-0.091,260.14,35.914
1.815,-0.0249,1.2339,0.0684,-7.2829,-48.1092,-3.0112,31.3,96974.0,,,,,,,
1.82,,,,,,,,,352.015,4.334,0.139,-9.01,-0.105,262.12,17.761
1.825,-0.0225,1.3408,0.0679,1.5406,-78.0112,-2.0308,31.2,97001.0,,,,,,,
1.83,,,,,,,,,351.96,4.296,0.138,-9.028,-0.113,262.21,3.466
1.835,-0.02,1.4233,0.1479,-4.6218,-66.2465,-5.6723,31.3,96973.0,,,,,,,
1.84,,,,,,,,,351.786,4.234,0.139,-9.057,-0.114,263.16,-8.063
1.845,0.0586,1.4995,0.2178,-15.1261,-34.3838,-7.0728,31.2,96996.0,,,,,,,
1.85,,,,,,,,,351.513,4.181,0.141,-9.081,-0.121,263.25,-17.452
1.855,0.0054,1.6484,0.1772,-20.5882,-54.2717,-9.0336,31.2,96999.0,,,,,,,
1.86,,,,,,,,,351.111,4.154,0.141,-9.094,-0.136,263.68,-29.906
1.865,-0.0474,1.665,0.1826,30.6022,-51.0504,-7.563,31.3,96991.0,,,,,,,
1.87,,,,,,,,,350.669,4.111,0.14,-9.113,-0.157,263.68,-33.419
1.875,-0.083,1.6836,0.1904,-10.5742,-57.0728,-6.0924,31.3,97014.0,,,,,,,
1.88,,,,,,,,,350.201,4.069,0.156,-9.131,-0.137,263.68,-35.465
1.885,-0.0234,1.6987,0.2065,-4.902,-63.5154,-2.8011,31.3,96982.0,,,,,,,
1.89,,,,,,,,,349.711,4.024,0.157,-9.151,-0.149,263.68,-37.044
1.895,-0.02,1.6904,0.2119,-10.014,-55.7423,-1.2605,31.2,97000.0,,,,,,,
1.9,,,,,,,,,349.202,3.973,0.156,-9.174,-0.155,264.11,-38.502
1.905,-0.0063,1.688,0.2329,11.9748,-61.4146,-1.4706,31.3,97001.0,,,,,,,
1.91,,,,,,,,,348.659,3.928,0.153,-9.193,-0.165,263.68,-41.351
1.915,-0.0107,1.6968,0.2295,-22.3389,-59.1036,-2.0308,31.2,96998.0,,,,,,,
1.92,,,,,,,,,348.106,3.878,0.158,-9.214,-0.158,263.42,-41.669
1.925,-0.0186,1.688,0.3057,-9.8039,-20.4482,-1.2605,31.2,96992.0,,,,,,,
1.93,,,,,,,,,347.544,3.831,0.151,-9.234,-0.178,263.51,-42.024
1.935,-0.0044,1.6675,0.2827,2.521,-19.3277,0.5602,31.2,96996.0,,,,,,,
1.94,,,,,,,,,346.976,3.814,0.148,-9.24,-0.187,263.51,-42.108
1.945,-0.001,1.6733,0.2959,14.916,-39.7059,-0.2801,31.2,96970.0,,,,,,,
1.95,,,,,,,,,346.402,3.798,0.148,-9.247,-0.186,263.51,-42.108
1.955,0.0039,1.6538,0.2939,-8.4734,-37.2549,0.5602,31.2,96985.0,,,,,,,
1.96,,,,,,,,,345.822,3.766,0.153,-9.26,-0.175,263.68,-42.108
1.965,0.021,1.6504,0.3354,30.8824,-52.381,-0.1401,31.2,96972.0,,,,,,,
1.97,,,,,,,,,345.237,3.735,0.149,-9.272,-0.182,263.68,-42.108
1.975,-0.0039,1.6387,0.2871,-16.1064,-42.0868,0.2801,31.2,96923.0,,,,,,,
1.98,,,,,,,,,344.645,3.692,0.158,-9.29,-0.159,264.02,-42.108
1.985,0.0068,1.6221,0.2896,1.2605,-38.6555,1.1204,31.2,96879.0,,,,,,,
1.99,,,,,,,,,344.051,3.658,0.152,-9.303,-0.173,264.02,-41.828
1.995,0.0005,1.6162,0.2871,10.3641,-34.6639,0.6303,31.2,96850.0,,,,,,,
2.0,,,,,,,,,343.453,3.627,0.151,-9.316,-0.173,264.63,-41.716
2.005,0.0293,1.6104,0.2974,24.2997,-42.7871,1.0504,31.2,96842.0,,,,,,,
2.01,,,,,,,,,342.852,3.598,0.154,-9.327,-0.165,265.75,-41.454
2.015,0.0259,1.6133,0.314,15.4762,-33.0532,-0.07,31.2,96809.0,,,,,,,
2.02,,,,,,,,,342.246,3.563,0.16,-9.341,-0.146,265.92,-41.389
2.025,0.0371,1.6089,0.3223,1.6106,-28.3613,-0.1401,31.3,96748.0,,,,,,,
2.03,,,,,,,,,341.642,3.535,0.164,-9.351,-0.135,269.97,-41.165
2.035,0.0161,1.6035,0.2876,6.6527,-37.0448,-0.1401,31.2,96734.0,,,,,,,
2.04,,,,,,,,,341.041,3.512,0.164,-9.36,-0.135,273.77,-40.847
2.045,0.0425,1.5986,0.3042,30.8824,-42.9272,0.7003,31.2,96691.0,,,,,,,
2.05,,,,,,,,,340.438,3.481,0.166,-9.371,-0.13,276.27,-40.735
2.055,0.0103,1.5977,0.2808,-2.1008,-29.4818,-0.8403,31.2,96698.0,,,,,,,
2.06,,,,,,,,,339.83,3.445,0.174,-9.385,-0.106,276.97,-40.679
2.065,0.0479,1.5991,0.3057,-7.8431,-35.8543,-1.1905,31.2,96641.0,,,,,,,
2.07,,,,,,,,,339.22,3.421,0.174,-9.394,-0.109,279.81,-40.623
2.075,0.022,1.6035,0.2905,0.6303,-36.1345,-0.2101,31.2,96605.0,,,,,,,
2.08,,,,,,,,,338.613,3.391,0.173,-9.404,-0.117,285.09,-40.595
2.085,0.022,1.5889,0.2773,8.1933,-43.6975,-0.1401,31.2,96584.0,,,,,,,
2.09,,,,,,,,,338.002,3.361,0.173,-9.415,-0.118,286.29,-40.492
2.095,0.043,1.5918,0.2583,-10.7843,-25.6303,-1.7507,31.2,96568.0,,,,,,,
2.1,,,,,,,,,337.389,3.325,0.175,-9.428,-0.112,289.41,-40.492
2.105,0.0186,1.5762,0.269,5.8824,-28.9916,-2.1008,31.2,96529.0,,,,,,,
2.11,,,,,,,,,336.771,3.304,0.173,-9.435,-0.123,290.01,-40.408
2.115,0.0503,1.5869,0.3076,7.0028,-28.8515,-2.2409,31.2,96453.0,,,,,,,
2.12,,,,,,,,,336.154,3.28,0.176,-9.444,-0.12,294.33,-40.399
2.125,0.0088,1.5664,0.2979,4.7619,-33.8235,-2.0308,31.2,96423.0,,,,,,,
2.13,,,,,,,,,335.535,3.255,0.18,-9.452,-0.116,297.45,-40.38
2.135,-0.0039,1.5723,0.2769,-5.7423,-11.1345,-3.4314,31.2,96357.0,,,,,,,
2.14,,,,,,,,,334.914,3.227,0.182,-9.462,-0.113,299.27,-40.268
2.145,-0.0068,1.582,0.2739,-0.9804,-4.4118,-2.7311,31.2,96282.0,,,,,,,
2.15,,,,,,,,,334.288,3.218,0.183,-9.465,-0.12,300.65,-40.212
2.155,0.0269,1.5679,0.2793,-3.9216,-25.3501,-2.7311,31.2,96235.0,,,,,,,
2.16,,,,,,,,,333.662,3.214,0.185,-9.466,-0.122,304.03,-40.174
2.165,-0.001,1.5747,0.2432,-21.1485,-32.0028,-2.451,31.2,96214.0,,,,,,,
2.17,,,,,,,,,333.041,3.193,0.186,-9.473,-0.127,310.61,-40.081
2.175,-0.0005,1.5908,0.2881,6.7927,-44.8179,-2.1008,31.2,96235.0,,,,,,,
2.18,,,,,,,,,332.419,3.166,0.182,-9.482,-0.147,313.2,-39.969
2.185,-0.0034,1.5757,0.2788,6.3025,-43.2773,-2.381,31.2,96324.0,,,,,,,
2.19,,,,,,,,,331.799,3.129,0.185,-9.494,-0.143,318.93,-39.969
2.195,0.0093,1.5693,0.2925,2.7311,-35.2941,-2.451,31.2,96409.0,,,,,,,
2.2,,,,,,,,,331.178,3.093,0.188,-9.506,-0.14,321.79,-39.959
2.205,0.0078,1.5845,0.2573,21.0784,-36.3445,-0.5602,31.2,96545.0,,,,,,,
2.21,,,,,,,,,330.55,3.063,0.191,-9.516,-0.139,321.79,-39.941
2.215,0.0283,1.626,0.3076,12.7451,-41.0364,-0.6303,31.2,96601.0,,,,,,,
2.22,,,,,,,,,329.915,3.032,0.196,-9.526,-0.123,321.79,-39.941
2.225,0.0312,1.5923,0.291,31.0224,-20.5182,-0.7003,31.2,96600.0,,,,,,,
2.23,,,,,,,,,329.273,2.998,0.2,-9.537,-0.114,321.79,-39.959
2.235,-0.0034,1.6021,0.2461,6.4426,-41.6667,-0.7703,31.2,96609.0,,,,,,,
2.24,,,,,,,,,328.623,2.98,0.208,-9.542,-0.089,321.79,-40.081
2.245,0.0396,1.5615,0.3047,-3.0112,-59.6639,-0.4902,31.2,96577.0,,,,,,,
2.25,,,,,,,,,327.953,2.945,0.211,-9.553,-0.086,314.42,-40.128
2.255,0.0103,1.5532,0.2368,6.3025,-43.9776,-1.0504,31.2,96498.0,,,,,,,
2.26,,,,,,,,,327.255,2.895,0.21,-9.569,-0.09,302.64,-40.128
2.265,0.0273,1.5439,0.2896,10.1541,-62.535,-1.1204,31.2,96427.0,,,,,,,
2.27,,,,,,,,,326.551,2.858,0.212,-9.58,-0.086,302.64,-40.128
2.275,0.0381,1.4502,0.2632,8.2633,-76.1204,-0.9104,31.2,96347.0,,,,,,,
2.28,,,,,,,,,325.84,2.805,0.215,-9.595,-0.08,302.64,-39.959
2.285,0.0254,1.4297,0.231,1.4006,-71.7787,-2.1709,31.2,96283.0,,,,,,,
2.29,,,,,,,,,325.124,2.741,0.217,-9.614,-0.075,302.64,-39.838
2.295,0.0405,1.3706,0.2617,23.3894,-65.1261,-1.9608,31.3,96255.0,,,,,,,
2.3,,,,,,,,,324.401,2.68,0.219,-9.631,-0.077,302.64,-39.688
2.305,0.0337,1.3208,0.2612,-6.9328,-55.6723,-1.7507,31.3,96599.0,,,,,,,
2.31,,,,,,,,,323.681,2.625,0.226,-9.646,-0.059,306.71,-39.53
2.315,0.0132,1.3291,0.2427,0.7003,-64.1457,-1.1905,31.2,97034.0,,,,,,,
2.32,,,,,,,,,322.955,2.578,0.225,-9.659,-0.067,306.71,-39.352
2.325,0.021,1.3066,0.251,-2.9412,-48.5294,-2.7311,31.2,97004.0,,,,,,,
2.33,,,,,,,,,322.239,2.523,0.226,-9.673,-0.069,306.71,-37.558
2.335,0.0503,1.3301,0.2871,-19.6779,-41.3165,-3.2913,31.2,96959.0,,,,,,,
2.34,,,,,,,,,321.52,2.482,0.228,-9.684,-0.073,306.71,-37.166
2.345,0.04,1.3052,0.2437,-1.8908,-40.1961,-1.8908,31.2,96956.0,,,,,,,
2.35,,,,,,,,,320.805,2.447,0.226,-9.692,-0.092,306.71,-36.035
2.355,0.0361,1.3423,0.2734,3.9216,-49.7199,-2.451,31.2,97046.0,,,,,,,
2.36,,,,,,,,,320.074,2.413,0.227,-9.701,-0.096,297.97,-35.26
2.365,0.0107,1.3013,0.2651,-20.6583,-38.0952,-1.4006,31.2,96981.0,,,,,,,
2.37,,,,,,,,,319.277,2.37,0.23,-9.711,-0.094,267.13,-35.26
2.375,0.0977,1.3438,0.2461,-5.6723,-32.6331,-2.1008,31.3,96857.0,,,,,,,
2.38,,,,,,,,,318.472,2.338,0.226,-9.719,-0.114,266.87,-35.241
2.385,0.0015,1.3101,0.2637,-9.8039,-30.6022,-0.9104,31.3,96809.0,,,,,,,
2.39,,,,,,,,,317.659,2.31,0.227,-9.725,-0.12,266.87,-35.241
2.395,0.0503,1.3145,0.2798,-14.7759,-34.1737,-2.451,31.2,96713.0,,,,,,,
2.4,,,,,,,,,316.84,2.284,0.225,-9.731,-0.13,266.87,-35.082
2.405,0.0151,1.2974,0.2163,12.535,-41.3165,-1.4706,31.2,96632.0,,,,,,,
2.41,,,,,,,,,316.015,2.255,0.224,-9.738,-0.144,266.87,-34.961
2.415,0.0176,1.2598,0.2563,15.6162,-49.8599,-1.2605,31.2,96491.0,,,,,,,
2.42,,,,,,,,,315.183,2.22,0.227,-9.746,-0.135,267.13,-34.877
2.425,0.0698,1.2915,0.2896,-2.1008,-59.6639,-0.7003,31.2,96401.0,,,,,,,
2.43,,,,,,,,,314.36,2.177,0.231,-9.756,-0.124,275.67,-34.877
2.435,0.0903,1.2847,0.2681,1.4706,-50.6303,-1.7507,31.2,96253.0,,,,,,,
2.44,,,,,,,,,313.538,2.126,0.231,-9.767,-0.128,279.81,-34.783
2.445,0.0103,1.2544,0.2393,18.9076,-22.6891,-1.6106,31.2,96274.0,,,,,,,
2.45,,,,,,,,,312.726,2.082,0.232,-9.777,-0.128,288.11,-34.709
2.455,0.0464,1.2632,0.2305,-15.7563,-33.6134,-2.381,31.2,96331.0,,,,,,,
2.46,,,,,,,,,311.921,2.062,0.237,-9.781,-0.113,295.11,-34.634
2.465,0.0225,1.2524,0.2617,-17.2969,-43.5574,-1.7507,31.2,96281.0,,,,,,,
2.47,,,,,,,,,311.134,2.034,0.236,-9.787,-0.129,307.31,-34.522
2.475,0.082,1.2236,0.2427,-17.1569,-47.6891,-0.7703,31.2,96247.0,,,,,,,
2.48,,,,,,,,,310.357,1.996,0.234,-9.794,-0.145,315.11,-34.391
2.485,0.0479,1.2324,0.2607,-11.2745,-28.7815,-0.8403,31.2,96320.0,,,,,,,
2.49,,,,,,,,,309.588,1.956,0.231,-9.802,-0.162,321.18,-33.98
2.495,0.0591,1.2505,0.2178,-6.9328,-23.8796,-2.8711,31.2,96191.0,,,,,,,
2.5,,,,,,,,,308.815,1.931,0.229,-9.807,-0.173,322.13,-33.915
2.505,0.0444,1.2222,0.2769,-25.6303,-23.7395,-3.6415,31.2,96174.0,,,,,,,
2.51,,,,,,,,,308.042,1.91,0.23,-9.811,-0.18,325.52,-33.812
2.515,0.0234,1.249,0.1953,4.0616,-37.535,-2.8711,31.2,96126.0,,,,,,,
2.52,,,,,,,,,307.263,1.89,0.229,-9.814,-0.204,326.13,-33.774
2.525,0.0811,1.2109,0.2578,20.1681,-33.0532,-2.6611,31.2,96071.0,,,,,,,
2.53,,,,,,,,,306.481,1.858,0.232,-9.82,-0.202,327.95,-33.737
2.535,0.0303,1.2266,0.252,8.4034,-35.5742,-2.9412,31.2,96006.0,,,,,,,
2.54,,,,,,,,,305.693,1.829,0.237,-9.826,-0.187,328.47,-33.709
2.545,0.0635,1.23,0.2339,-32.3529,-31.4426,-3.5014,31.2,95974.0,,,,,,,
2.55,,,,,,,,,304.911,1.798,0.24,-9.832,-0.181,333.33,-33.391
2.555,0.0396,1.2183,0.2886,-17.8571,-42.7171,-2.381,31.2,95928.0,,,,,,,
2.56,,,,,,,,,304.124,1.771,0.238,-9.836,-0.211,334.8,-33.345
2.565,0.0449,1.2017,0.2207,2.6611,-29.5518,-1.2605,31.2,95872.0,,,,,,,
2.57,,,,,,,,,303.34,1.734,0.236,-9.842,-0.228,338.97,-33.279
2.575,0.0728,1.2012,0.2539,-11.2745,-28.8515,-2.6611,31.2,95846.0,,,,,,,
2.58,,,,,,,,,302.559,1.709,0.237,-9.847,-0.227,343.75,-33.279
2.585,0.0005,1.2236,0.2612,5.1821,-40.9664,-2.451,31.2,95768.0,,,,,,,
2.59,,,,,,,,,301.784,1.684,0.237,-9.851,-0.238,349.4,-33.195
2.595,0.0938,1.2168,0.1802,-5.2521,-34.0336,-3.1513,31.2,95727.0,,,,,,,
2.6,,,,,,,,,301.007,1.648,0.24,-9.857,-0.236,352.18,-33.195
2.605,-0.0176,1.1948,0.312,-17.1569,-21.5686,-2.591,31.2,95640.0,,,,,,,
2.61,,,,,,,,,300.232,1.619,0.241,-9.862,-0.242,356.18,-33.12
2.615,0.0767,1.21,0.1997,-0.6303,-31.0224,-1.2605,31.2,95643.0,,,,,,,
2.62,,,,,,,,,299.461,1.6,0.24,-9.864,-0.258,361.06,-33.092
2.625,0.0503,1.1777,0.3022,17.0868,-28.3613,-1.1905,31.2,95590.0,,,,,,,
2.63,,,,,,,,,298.687,1.573,0.241,-9.869,-0.26,363.32,-33.092
2.635,0.0508,1.1812,0.2031,21.0084,-22.1289,-2.591,31.2,95536.0,,,,,,,
2.64,,,,,,,,,297.923,1.548,0.244,-9.873,-0.247,370.11,-32.962
2.645,0.0439,1.1626,0.2798,-3.3613,-27.381,-1.8908,31.2,95479.0,,,,,,,
2.65,,,,,,,,,297.161,1.528,0.248,-9.876,-0.23,373.69,-32.803
2.655,0.0713,1.1704,0.2495,-15.7563,-21.9188,-1.1905,31.2,95451.0,,,,,,,
2.66,,,,,,,,,296.408,1.504,0.249,-9.88,-0.235,381.01,-32.793
2.665,0.0171,1.1631,0.1777,-1.9608,-28.8515,0.3501,31.3,95423.0,,,,,,,
2.67,,,,,,,,,295.65,1.486,0.248,-9.882,-0.249,381.27,-32.672
2.675,0.0957,1.165,0.3257,-4.6919,-36.4846,-1.0504,31.2,95342.0,,,,,,,
2.68,,,,,,,,,294.897,1.461,0.247,-9.886,-0.252,385.64,-32.41
2.685,0.0205,1.1523,0.2158,5.3922,-36.5546,-0.2101,31.2,95307.0,,,,,,,
2.69,,,,,,,,,294.148,1.429,0.246,-9.89,-0.258,390.35,-32.345
2.695,0.0713,1.1587,0.2227,-15.1961,-16.7367,-2.1008,31.2,95255.0,,,,,,,
2.7,,,,,,,,,293.405,1.397,0.247,-9.895,-0.255,395.33,-32.205
2.705,0.0215,1.1572,0.2905,12.0448,-30.4622,-1.4706,31.2,95216.0,,,,,,,
2.71,,,,,,,,,292.661,1.383,0.246,-9.897,-0.269,397.77,-32.102
2.715,0.063,1.1489,0.1973,-0.4202,-25.9104,-1.4006,31.2,95185.0,,,,,,,
2.72,,,,,,,,,291.916,1.356,0.249,-9.901,-0.26,400.22,-32.065
2.725,0.0859,1.1387,0.2778,-1.2605,-27.2409,-1.3305,31.2,95153.0,,,,,,,
2.73,,,,,,,,,291.181,1.333,0.249,-9.904,-0.262,407.3,-32.055
2.735,0.0161,1.1226,0.1807,2.521,-26.3305,-1.1905,31.2,95127.0,,,,,,,
2.74,,,,,,,,,290.446,1.309,0.25,-9.907,-0.264,410.36,-31.981
2.745,0.0884,1.1436,0.3149,1.0504,-24.5098,-2.1709,31.2,95058.0,,,,,,,
2.75,,,,,,,,,289.716,1.286,0.251,-9.91,-0.263,414.91,-31.953
2.755,0.0938,1.1411,0.2637,-1.0504,-34.5938,-3.4314,31.2,95015.0,,,,,,,
2.76,,,,,,,,,288.987,1.265,0.252,-9.912,-0.264,418.32,-31.859
2.765,0.0337,1.1382,0.2505,2.8011,-21.9188,-2.591,31.2,94977.0,,,,,,,
2.77,,,,,,,,,288.258,1.234,0.254,-9.916,-0.266,421.04,-31.794
2.775,0.0649,1.1616,0.2817,-5.9524,-27.9412,-3.7815,31.2,94940.0,,,,,,,
2.78,,,,,,,,,287.53,1.215,0.257,-9.918,-0.265,423.84,-31.691
2.785,0.0596,1.1309,0.2417,-9.0336,-24.2997,-2.6611,31.2,94903.0,,,,,,,
2.79,,,,,,,,,286.801,1.191,0.259,-9.921,-0.272,426.12,-31.691
2.795,0.021,1.1021,0.2344,-0.2101,-21.2885,-1.4706,31.2,94856.0,,,,,,,
2.8,,,,,,,,,286.079,1.169,0.26,-9.923,-0.281,432.16,-31.644
2.805,0.1035,1.1362,0.2847,-15.7563,-32.6331,-1.6106,31.2,94850.0,,,,,,,
2.81,,,,,,,,,285.36,1.151,0.261,-9.926,-0.283,435.93,-31.598
2.815,0.0308,1.1445,0.2925,-7.8431,-26.2605,-1.6807,31.2,94812.0,,,,,,,
2.82,,,,,,,,,284.642,1.122,0.26,-9.928,-0.298,439.26,-31.588
2.825,0.0503,1.1489,0.2573,-7.493,-28.0112,-3.2913,31.2,94730.0,,,,,,,
2.83,,,,,,,,,283.925,1.1,0.26,-9.931,-0.306,442.51,-31.588
2.835,0.085,1.1299,0.1948,-6.6527,-25.8403,-2.451,31.2,94700.0,,,,,,,
2.84,,,,,,,,,283.209,1.075,0.261,-9.933,-0.314,445.76,-31.644
2.845,0.0137,1.1021,0.3018,13.4454,-27.381,-2.2409,31.2,94680.0,,,,,,,
2.85,,,,,,,,,282.496,1.052,0.262,-9.935,-0.321,449.88,-31.588
2.855,0.0747,1.1284,0.2495,4.2017,-19.2577,-2.9412,31.2,94625.0,,,,,,,
2.86,,,,,,,,,281.779,1.028,0.265,-9.938,-0.311,450.41,-31.551
2.865,0.0361,1.103,0.2388,5.5322,-38.2353,-2.0308,31.2,94616.0,,,,,,,
2.87,,,,,,,,,281.063,1.011,0.268,-9.94,-0.309,453.75,-31.448
2.875,0.1021,1.085,0.2451,-2.1008,-44.8179,-3.0112,31.2,94538.0,,,,,,,
2.88,,,,,,,,,280.359,0.977,0.269,-9.943,-0.306,460.95,-31.429
2.885,0.0288,1.1016,0.2632,-4.5518,-37.8852,-3.7115,31.2,94494.0,,,,,,,
2.89,,,,,,,,,279.655,0.938,0.27,-9.947,-0.309,463.59,-31.401
2.895,0.0181,1.1211,0.2998,0.8403,-37.1148,-3.2213,31.2,94465.0,,,,,,,
2.9,,,,,,,,,278.949,0.905,0.272,-9.95,-0.315,465.35,-31.401
2.905,0.042,1.1016,0.2529,-11.3445,-39.3557,-1.0504,31.2,94450.0,,,,,,,
2.91,,,,,,,,,278.249,0.872,0.274,-9.953,-0.316,470.18,-31.261
2.915,0.0459,1.1021,0.2505,15.4762,-42.437,0.6303,31.2,94413.0,,,,,,,
2.92,,,,,,,,,277.548,0.838,0.274,-9.955,-0.328,470.98,-30.916
2.925,0.0503,1.0854,0.231,9.0336,-34.8739,0.07,31.2,94328.0,,,,,,,
2.93,,,,,,,,,276.858,0.801,0.273,-9.959,-0.316,477.84,-30.897
2.935,0.0283,1.0903,0.3711,2.591,-42.9972,0.4202,31.2,94333.0,,,,,,,
2.94,,,,,,,,,276.171,0.77,0.273,-9.961,-0.309,481.72,-30.897
2.945,0.0918,1.0923,0.1577,32.1429,-57.0028,0.4202,31.2,94276.0,,,,,,,
2.95,,,,,,,,,275.484,0.732,0.272,-9.964,-0.309,484.27,-30.887
2.955,-0.0088,1.083,0.3467,14.1457,-51.6106,0.4202,31.2,94230.0,,,,,,,
2.96,,,,,,,,,274.794,0.682,0.272,-9.968,-0.283,485.59,-30.887
2.965,0.0659,1.105,0.2393,-4.6919,-57.9132,1.8908,31.2,94200.0,,,,,,,
2.97,,,,,,,,,274.107,0.636,0.271,-9.972,-0.272,488.86,-30.71
2.975,0.0527,1.0923,0.3354,-0.3501,-51.1905,3.0812,31.2,94153.0,,,,,,,
2.98,,,,,,,,,273.43,0.586,0.268,-9.975,-0.278,495.91,-30.887
2.985,0.0874,1.0767,0.2104,-0.7003,-53.4314,1.5406,31.2,94103.0,,,,,,,
2.99,,,,,,,,,272.749,0.541,0.265,-9.977,-0.28,496.35,-30.71
2.995,0.0918,1.0479,0.2251,-18.6275,-47.7591,-0.07,31.2,94070.0,,,,,,,
3.0,,,,,,,,,272.074,0.494,0.262,-9.98,-0.282,500.94,-30.71
3.005,0.0181,1.0718,0.2964,-3.8515,-46.4286,0.6303,31.2,94026.0,,,,,,,
3.01,,,,,,,,,271.403,0.453,0.26,-9.981,-0.3,504.99,-30.673
3.015,0.0435,1.0688,0.2622,26.8908,-56.4426,2.1008,31.2,93989.0,,,,,,,
3.02,,,,,,,,,270.733,0.412,0.259,-9.983,-0.305,507.65,-30.579
3.025,0.1128,1.0552,0.21,9.2437,-65.4762,1.6807,31.2,93977.0,,,,,,,
3.03,,,,,,,,,270.068,0.362,0.256,-9.986,-0.284,511.8,-30.532
3.035,0.0425,1.0283,0.2368,10.4342,-56.7227,0.8403,31.2,93896.0,,,,,,,
3.04,,,,,,,,,269.409,0.305,0.254,-9.988,-0.277,516.21,-30.411
3.045,0.0933,1.063,0.2852,11.4846,-58.7535,0.0,31.2,93857.0,,,,,,,
3.05,,,,,,,,,268.753,0.255,0.252,-9.989,-0.27,519.13,-30.318
3.055,0.0356,1.0552,0.3047,-8.0532,-57.9832,0.1401,31.2,93831.0,,,,,,,
3.06,,,,,,,,,268.1,0.203,0.251,-9.991,-0.262,523.02,-30.262
3.065,0.0698,1.0576,0.2583,2.8011,-57.0728,-0.07,31.2,93785.0,,,,,,,
3.07,,,,,,,,,267.451,0.152,0.25,-9.992,-0.271,526.29,-30.149
3.075,0.1118,1.0605,0.2305,-9.1737,-64.7059,-0.9804,31.2,93742.0,,,,,,,
3.08,,,,,,,,,266.8,0.102,0.249,-9.992,-0.27,527.35,-30.047
3.085,0.0859,1.0527,0.2817,8.5434,-68.6975,-1.1204,31.2,93675.0,,,,,,,
3.09,,,,,,,,,266.161,0.046,0.248,-9.992,-0.28,534.52,-30.047
3.095,0.0796,1.0347,0.2666,23.2493,-56.2325,-0.5602,31.2,93663.0,,,,,,,
3.1,,,,,,,,,265.525,-0.013,0.248,-9.993,-0.275,537.98,-30.047
3.105,0.1221,1.0586,0.251,-22.0588,-58.1933,-2.3109,31.2,93591.0,,,,,,,
3.11,,,,,,,,,264.889,-0.063,0.247,-9.993,-0.256,540.28,-30.0
3.115,0.0278,1.043,0.21,4.6218,-64.7759,-2.591,31.2,93564.0,,,,,,,
3.12,,,,,,,,,264.258,-0.114,0.248,-9.992,-0.277,544.35,-30.0
3.125,0.1299,1.0562,0.2744,-4.6218,-69.4678,-4.0616,31.2,93511.0,,,,,,,
3.13,,,,,,,,,263.631,-0.171,0.249,-9.991,-0.275,548.16,-30.0
3.135,0.0723,1.0322,0.231,-8.0532,-66.6667,-5.042,31.2,93482.0,,,,,,,
3.14,,,,,,,,,263.013,-0.232,0.251,-9.99,-0.281,554.11,-30.019
3.145,0.1138,1.0361,0.2773,7.2129,-64.916,-5.2521,31.2,93445.0,,,,,,,
3.15,,,,,,,,,262.392,-0.29,0.255,-9.988,-0.29,555.17,-30.0
3.155,0.0957,1.0332,0.2192,-19.1176,-55.7423,-4.972,31.2,93409.0,,,,,,,
3.16,,,,,,,,,261.783,-0.347,0.258,-9.986,-0.286,561.56,-29.953
3.165,0.0469,1.0156,0.2915,-20.7983,-59.5938,-4.2017,31.2,93379.0,,,,,,,
3.17,,,,,,,,,261.175,-0.396,0.261,-9.984,-0.304,563.96,-29.766
3.175,0.1348,1.0273,0.3003,2.7311,-71.0784,-3.7815,31.2,93339.0,,,,,,,
3.18,,,,,,,,,260.576,-0.447,0.264,-9.981,-0.324,568.66,-29.636
3.185,0.0444,1.02,0.2144,16.5266,-75.07,-2.8711,31.2,93302.0,,,,,,,
3.19,,,,,,,,,259.977,-0.51,0.266,-9.978,-0.324,571.24,-29.608
3.195,0.1245,1.0264,0.2749,18.9076,-76.9608,-4.972,31.2,93267.0,,,,,,,
3.2,,,,,,,,,259.381,-0.576,0.266,-9.974,-0.312,574.53,-29.579
3.205,0.0493,1.0352,0.2051,-11.6246,-75.1401,-4.2717,31.2,93246.0,,,,,,,
3.21,,,,,,,,,258.788,-0.644,0.267,-9.971,-0.297,577.73,-29.561
3.215,0.0752,1.0229,0.3076,8.8936,-83.1232,-4.4118,31.2,93203.0,,,,,,,
3.22,,,,,,,,,258.197,-0.709,0.27,-9.966,-0.31,580.4,-29.561
3.225,0.0352,1.0024,0.2305,7.493,-79.3417,-2.2409,31.2,93136.0,,,,,,,
3.23,,,,,,,,,257.609,-0.782,0.271,-9.96,-0.304,583.95,-29.467
3.235,0.1079,1.0171,0.3101,-6.7927,-80.5322,-2.451,31.2,93128.0,,,,,,,
3.24,,,,,,,,,257.025,-0.851,0.271,-9.955,-0.3,587.24,-29.449
3.245,0.0635,0.9985,0.1904,-7.3529,-78.7115,-1.8908,31.2,93084.0,,,,,,,
3.25,,,,,,,,,256.444,-0.921,0.272,-9.948,-0.308,590.36,-29.383
3.255,0.1079,0.9971,0.2803,-10.7843,-78.9216,-3.2913,31.2,93070.0,,,,,,,
3.26,,,,,,,,,255.862,-0.99,0.272,-9.942,-0.317,592.23,-29.327
3.265,0.0366,1.0298,0.249,-7.9132,-68.9776,-2.3109,31.2,93007.0,,,,,,,
3.27,,,,,,,,,255.285,-1.058,0.274,-9.934,-0.328,596.06,-29.327
3.275,0.041,1.0098,0.2461,-10.6443,-80.112,-0.6303,31.2,92963.0,,,,,,,
3.28,,,,,,,,,254.718,-1.118,0.275,-9.927,-0.337,602.03,-29.327
3.285,0.1138,0.9956,0.1992,-1.7507,-84.5938,-0.1401,31.2,92937.0,,,,,,,
3.29,,,,,,,,,254.147,-1.188,0.274,-9.919,-0.349,602.74,-29.271
3.295,0.064,0.981,0.2354,-1.4706,-82.1429,-2.1008,31.2,92902.0,,,,,,,
3.3,,,,,,,,,253.583,-1.261,0.272,-9.91,-0.353,606.66,-29.131
3.305,0.1045,0.9941,0.2505,6.7927,-82.9832,-3.9216,31.2,92874.0,,,,,,,
3.31,,,,,,,,,253.017,-1.332,0.272,-9.9,-0.356,607.91,-28.991
3.315,0.0146,0.9844,0.2275,-5.2521,-77.0308,-2.8011,31.2,92821.0,,,,,,,
3.32,,,,,,,,,252.462,-1.404,0.272,-9.89,-0.352,613.53,-28.916
3.325,0.1284,0.9893,0.2886,-4.4818,-76.2605,-1.8207,31.2,92789.0,,,,,,,
3.33,,,,,,,,,251.912,-1.471,0.273,-9.88,-0.359,617.45,-28.888
3.335,0.1069,0.9795,0.1714,-2.591,-78.2213,-1.1905,31.2,92753.0,,,,,,,
3.34,,,,,,,,,251.363,-1.537,0.273,-9.87,-0.365,619.78,-28.86
3.345,0.0542,0.9692,0.2744,-6.8627,-73.0392,-2.6611,31.2,92697.0,,,,,,,
3.35,,,,,,,,,250.817,-1.605,0.273,-9.859,-0.369,622.9,-28.832
3.355,0.0967,0.9819,0.2124,-15.1261,-69.2577,-4.2017,31.2,92662.0,,,,,,,
3.36,,,,,,,,,250.273,-1.668,0.274,-9.848,-0.377,625.4,-28.739
3.365,0.0527,0.9883,0.2485,-0.9804,-75.9104,-4.0616,31.2,92602.0,,,,,,,
3.37,,,,,,,,,249.737,-1.727,0.278,-9.837,-0.392,630.14,-28.645
3.375,0.0522,0.9678,0.1831,3.4314,-80.9524,-3.0812,31.2,92575.0,,,,,,,
3.38,,,,,,,,,249.202,-1.793,0.279,-9.826,-0.394,633.0,-28.645
3.385,0.1138,0.9541,0.2417,6.0924,-81.5126,-4.2717,31.2,92568.0,,,,,,,
3.39,,,,,,,,,248.672,-1.862,0.279,-9.813,-0.393,636.21,-28.598
3.395,0.0405,0.9771,0.1826,22.2689,-86.9048,-5.1821,31.2,92514.0,,,,,,,
3.4,,,,,,,,,248.15,-1.933,0.279,-9.799,-0.39,641.22,-28.598
3.405,0.0645,0.9634,0.1855,6.7927,-81.4426,-3.9916,31.2,92479.0,,,,,,,
3.41,,,,,,,,,247.631,-2.008,0.277,-9.785,-0.373,644.35,-28.552
3.415,0.0352,0.9551,0.1963,-2.8711,-75.0,-2.7311,31.2,92432.0,,,,,,,
3.42,,,,,,,,,247.122,-2.078,0.277,-9.77,-0.369,649.73,-28.505
3.425,0.1113,0.959,0.2192,-13.6555,-78.1513,-3.8515,31.2,92402.0,,,,,,,
3.43,,,,,,,,,246.615,-2.142,0.278,-9.756,-0.373,652.14,-28.356
3.435,0.0703,0.9478,0.1509,-5.3221,-75.6303,-5.9524,31.2,92346.0,,,,,,,
3.44,,,,,,,,,246.104,-2.209,0.281,-9.741,-0.386,652.77,-28.328
3.445,0.1045,0.9575,0.2588,-5.2521,-68.7675,-8.7535,31.2,92306.0,,,,,,,
3.45,,,,,,,,,245.601,-2.273,0.285,-9.726,-0.392,657.61,-28.243
3.455,0.021,0.9517,0.1665,-7.9832,-76.1204,-6.8627,31.2,92265.0,,,,,,,
3.46,,,,,,,,,245.103,-2.332,0.292,-9.711,-0.397,660.74,-28.159
3.465,0.0557,0.9736,0.2466,-2.1709,-84.3838,-5.2521,31.2,92237.0,,,,,,,
3.47,,,,,,,,,244.611,-2.397,0.297,-9.695,-0.405,664.96,-28.131
3.475,0.0728,0.9517,0.2432,-14.2857,-88.3053,-2.521,31.2,92202.0,,,,,,,
3.48,,,,,,,,,244.12,-2.468,0.299,-9.677,-0.408,667.65,-28.131
3.485,0.0884,0.9409,0.1729,-11.7647,-85.2941,-4.5518,31.2,92154.0,,,,,,,
3.49,,,,,,,,,243.638,-2.543,0.301,-9.657,-0.422,672.67,-28.131
3.495,0.0776,0.9414,0.2114,-12.1148,-80.7423,-6.5826,31.1,92115.0,,,,,,,
3.5,,,,,,,,,243.161,-2.615,0.305,-9.637,-0.434,676.26,-28.085
3.505,0.0347,0.959,0.2905,-4.4118,-81.0224,-6.1625,31.2,92106.0,,,,,,,
3.51,,,,,,,,,242.689,-2.683,0.311,-9.617,-0.445,679.94,-28.019
3.515,0.0654,0.9692,0.2036,5.4622,-89.7759,-5.2521,31.2,92060.0,,,,,,,
3.52,,,,,,,,,242.218,-2.751,0.314,-9.598,-0.45,682.46,-28.019
3.525,0.04,0.9312,0.2051,-15.056,-93.6975,-2.9412,31.2,92027.0,,,,,,,
3.53,,,,,,,,,241.75,-2.827,0.314,-9.576,-0.447,685.6,-28.019
3.535,0.1084,0.9458,0.2266,-0.2801,-93.0672,-3.5714,31.2,91981.0,,,,,,,
3.54,,,,,,,,,241.289,-2.905,0.317,-9.552,-0.462,689.91,-28.019
3.545,0.0181,0.9316,0.2061,-1.2605,-86.9748,-4.5518,31.2,91966.0,,,,,,,
3.55,,,,,,,,,240.832,-2.983,0.316,-9.528,-0.465,693.42,-28.019
3.555,0.0547,0.9419,0.2588,1.2605,-92.0868,-4.902,31.1,91932.0,,,,,,,
3.56,,,,,,,,,240.372,-3.055,0.317,-9.504,-0.467,694.23,-27.907
3.565,0.0469,0.9268,0.2368,11.2045,-89.7059,-3.3613,31.1,91899.0,,,,,,,
3.57,,,,,,,,,239.919,-3.132,0.318,-9.479,-0.468,698.36,-27.832
3.575,0.0591,0.9204,0.1792,18.2073,-95.5182,-3.2913,31.1,91865.0,,,,,,,
3.58,,,,,,,,,239.468,-3.207,0.314,-9.455,-0.461,701.33,-27.823
3.585,0.0771,0.9365,0.2524,25.0,-96.4286,-3.6415,31.2,91826.0,,,,,,,
3.59,,,,,,,,,239.024,-3.286,0.308,-9.428,-0.448,705.48,-27.823
3.595,0.0215,0.939,0.2559,-2.3109,-90.8964,-3.8515,31.1,91818.0,,,,,,,
3.6,,,,,,,,,238.578,-3.367,0.301,-9.401,-0.43,706.83,-27.73
3.605,0.0449,0.9268,0.2065,-29.6218,-91.2465,-3.1513,31.1,91770.0,,,,,,,
3.61,,,,,,,,,238.135,-3.441,0.302,-9.374,-0.433,709.89,-27.73
3.615,0.0845,0.9219,0.2397,6.6527,-92.7871,-3.6415,31.1,91709.0,,,,,,,
3.62,,,,,,,,,237.696,-3.515,0.31,-9.345,-0.459,712.86,-27.636
3.625,0.0371,0.8911,0.2329,-13.0952,-100.9804,-4.4818,31.1,91677.0,,,,,,,
3.63,,,,,,,,,237.259,-3.591,0.308,-9.316,-0.456,715.92,-27.636
3.635,0.0625,0.9292,0.1904,7.493,-95.6583,-6.0924,31.1,91641.0,,,,,,,
3.64,,,,,,,,,236.828,-3.673,0.312,-9.283,-0.468,719.44,-27.543
3.645,0.0278,0.9058,0.27,7.2129,-75.0,-6.1625,31.1,91605.0,,,,,,,
3.65,,,,,,,,,236.392,-3.752,0.311,-9.252,-0.463,720.16,-27.543
3.655,0.0493,0.9077,0.1626,0.6303,-91.8768,-5.042,31.1,91575.0,,,,,,,
3.66,,,,,,,,,235.964,-3.813,0.311,-9.227,-0.458,724.49,-27.543
3.665,0.0771,0.8994,0.2544,-7.9132,-96.4286,-5.2521,31.1,91547.0,,,,,,,
3.67,,,,,,,,,235.546,-3.887,0.311,-9.196,-0.458,729.99,-27.449
3.675,0.0771,0.8979,0.1445,-4.2717,-101.6807,-6.6527,31.1,91518.0,,,,,,,
3.68,,,,,,,,,235.131,-3.964,0.315,-9.163,-0.466,732.88,-27.449
3.685,-0.0039,0.9126,0.2788,-1.1204,-106.4426,-6.0924,31.1,91460.0,,,,,,,
3.69,,,,,,,,,234.723,-4.046,0.318,-9.127,-0.47,736.13,-27.178
3.695,0.0776,0.8955,0.1719,9.5938,-96.9888,-5.6723,31.1,91430.0,,,,,,,
3.7,,,,,,,,,234.317,-4.131,0.319,-9.088,-0.473,739.38,-27.178
3.705,0.0483,0.8838,0.1685,0.7703,-101.2605,-6.3025,31.1,91385.0,,,,,,,
3.71,,,,,,,,,233.914,-4.208,0.317,-9.053,-0.466,742.09,-27.141
3.715,0.085,0.9014,0.1997,-6.5826,-103.3613,-6.3725,31.1,91354.0,,,,,,,
3.72,,,,,,,,,233.514,-4.289,0.318,-9.015,-0.466,744.62,-27.02
3.725,-0.0054,0.9141,0.2349,0.07,-104.0616,-5.4622,31.1,91294.0,,,,,,,
3.73,,,,,,,,,233.114,-4.37,0.321,-8.976,-0.472,747.24,-27.057
3.735,0.1094,0.916,0.1699,9.3838,-110.084,-5.3221,31.1,91296.0,,,,,,,
3.74,,,,,,,,,232.724,-4.452,0.322,-8.935,-0.474,752.48,-27.057
3.745,0.0269,0.8823,0.1392,-0.3501,-102.1709,-4.2017,31.1,91238.0,,,,,,,
3.75,,,,,,,,,232.336,-4.538,0.318,-8.892,-0.468,755.2,-27.057
3.755,0.1011,0.8901,0.2163,-4.1317,-104.7619,-5.6723,31.1,91212.0,,,,,,,
3.76,,,,,,,,,231.955,-4.618,0.318,-8.851,-0.469,759.27,-27.02
3.765,0.0254,0.8921,0.2109,6.6527,-101.4706,-4.4818,31.1,91184.0,,,,,,,
3.77,,,,,,,,,231.576,-4.699,0.32,-8.808,-0.474,762.07,-26.992
3.775,0.0835,0.8892,0.2085,5.8123,-102.7311,-4.7619,31.1,91111.0,,,,,,,
3.78,,,,,,,,,231.207,-4.777,0.317,-8.766,-0.47,767.32,-26.945
3.785,0.0615,0.895,0.2139,-8.8936,-103.8515,-4.5518,31.1,91111.0,,,,,,,
3.79,,,,,,,,,230.832,-4.856,0.314,-8.723,-0.467,767.51,-26.879
3.795,0.0405,0.8955,0.1255,8.2633,-116.3165,-4.8319,31.1,91098.0,,,,,,,
3.8,,,,,,,,,230.467,-4.935,0.318,-8.678,-0.475,772.58,-26.879
3.805,0.064,0.8931,0.2979,-5.2521,-114.6359,-5.8824,31.1,91090.0,,,,,,,
3.81,,,,,,,,,230.102,-5.024,0.314,-8.627,-0.47,774.94,-26.935
3.815,0.0532,0.8857,0.1421,-24.3697,-111.6246,-6.3025,31.1,91030.0,,,,,,,
3.82,,,,,,,,,229.739,-5.11,0.316,-8.576,-0.475,777.47,-26.898
3.825,0.0669,0.8955,0.2642,-0.1401,-110.6443,-6.1625,31.1,90982.0,,,,,,,
3.83,,,,,,,,,229.389,-5.193,0.328,-8.524,-0.494,784.09,-26.879
3.835,0.0425,0.8843,0.1548,4.5518,-105.3922,-4.8319,31.1,90955.0,,,,,,,
3.84,,,,,,,,,229.033,-5.276,0.328,-8.474,-0.495,784.09,-26.879
3.845,0.0557,0.8926,0.2354,2.2409,-113.6555,-4.902,31.1,90921.0,,,,,,,
3.85,,,,,,,,,228.674,-5.354,0.325,-8.425,-0.492,785.27,-26.879
3.855,0.1396,0.8872,0.1982,1.8207,-103.5714,-5.1821,31.1,90902.0,,,,,,,
3.86,,,,,,,,,228.311,-5.438,0.323,-8.371,-0.492,786.0,-26.889
3.865,0.0088,0.8867,0.2656,1.6106,-85.9244,-5.8824,31.1,90862.0,,,,,,,
3.87,,,,,,,,,227.958,-5.514,0.322,-8.321,-0.491,791.44,-26.889
3.875,0.0708,0.8857,0.2026,0.7003,-75.9104,-6.0924,31.1,90814.0,,,,,,,
3.88,,,,,,,,,227.613,-5.576,0.323,-8.279,-0.49,795.8,-26.889
3.885,0.0786,0.8857,0.1924,12.535,-104.0616,-7.1429,31.1,90808.0,,,,,,,
3.89,,,,,,,,,227.269,-5.631,0.324,-8.242,-0.489,798.26,-26.786
3.895,0.0093,0.8667,0.2676,4.4818,-86.4146,-6.8627,31.1,90766.0,,,,,,,
3.9,,,,,,,,,226.928,-5.707,0.319,-8.19,-0.48,801.34,-26.777
3.905,0.1167,0.8745,0.1821,0.9104,-107.2829,-6.5126,31.1,90740.0,,,,,,,
3.91,,,,,,,,,226.586,-5.769,0.319,-8.147,-0.476,803.07,-26.758
3.915,0.0132,0.8691,0.2568,-4.0616,-109.3838,-6.4426,31.1,90694.0,,,,,,,
3.92,,,,,,,,,226.249,-5.846,0.319,-8.092,-0.476,806.71,-26.758
3.925,0.1123,0.8784,0.1753,-5.8824,-109.8039,-7.2829,31.1,90654.0,,,,,,,
3.93,,,,,,,,,225.919,-5.923,0.321,-8.036,-0.478,811.07,-26.758
3.935,0.0269,0.8418,0.2666,-3.2913,-114.0756,-6.3725,31.1,90604.0,,,,,,,
3.94,,,,,,,,,225.584,-6.0,0.325,-7.978,-0.482,811.62,-26.758
3.945,0.0552,0.8452,0.1787,-9.1737,-110.6443,-6.7927,31.1,90585.0,,,,,,,
3.95,,,,,,,,,225.255,-6.08,0.327,-7.917,-0.485,815.44,-26.618
3.955,0.0537,0.8428,0.23,2.381,-111.2745,-7.3529,31.1,90545.0,,,,,,,
3.96,,,,,,,,,224.928,-6.156,0.333,-7.857,-0.491,817.81,-26.543
3.965,0.0229,0.8394,0.1304,0.7003,-110.014,-6.7227,31.1,90552.0,,,,,,,
3.97,,,,,,,,,224.609,-6.232,0.332,-7.797,-0.489,821.99,-26.44
3.975,0.0645,0.8403,0.2334,17.8571,-113.0252,-7.8431,31.1,90512.0,,,,,,,
3.98,,,,,,,,,224.295,-6.307,0.332,-7.736,-0.488,825.63,-26.394
3.985,0.0137,0.8325,0.1597,10.2941,-108.7535,-7.9132,31.1,90464.0,,,,,,,
3.99,,,,,,,,,223.992,-6.385,0.323,-7.674,-0.475,830.19,-25.982
3.995,0.0728,0.8359,0.1616,13.3053,-113.4454,-9.0336,31.1,90414.0,,,,,,,
4.0,,,,,,,,,223.689,-6.458,0.319,-7.613,-0.467,831.92,-25.936
4.005,-0.0229,0.855,0.1787,7.7031,-108.9636,-8.0532,31.1,90383.0,,,,,,,
4.01,,,,,,,,,223.388,-6.534,0.313,-7.549,-0.457,834.93,-25.917
4.015,0.0352,0.8286,0.208,5.6022,-112.0448,-7.1429,31.1,90313.0,,,,,,,
4.02,,,,,,,,,223.083,-6.606,0.31,-7.486,-0.451,835.57,-25.917
4.025,0.0264,0.8286,0.1113,11.0644,-108.1232,-7.8431,31.1,90298.0,,,,,,,
4.03,,,,,,,,,222.78,-6.68,0.308,-7.421,-0.446,838.58,-25.889
4.035,0.061,0.8374,0.252,-2.381,-112.2549,-8.6134,31.1,90261.0,,,,,,,
4.04,,,,,,,,,222.485,-6.75,0.303,-7.358,-0.437,842.96,-25.87
4.045,-0.0239,0.8389,0.1411,-3.0812,-106.5826,-6.7227,31.1,90216.0,,,,,,,
4.05,,,,,,,,,222.198,-6.822,0.306,-7.291,-0.437,847.52,-25.833
4.055,0.0649,0.8477,0.2007,-7.0728,-113.3754,-5.6723,31.1,90171.0,,,,,,,
4.06,,,,,,,,,221.913,-6.89,0.309,-7.227,-0.438,850.35,-25.833
4.065,0.0112,0.8101,0.106,-6.7927,-108.4734,-5.112,31.1,90142.0,,,,,,,
4.07,,,,,,,,,221.641,-6.961,0.313,-7.158,-0.443,856.74,-25.833
4.075,0.0796,0.8232,0.2334,-5.9524,-111.2745,-6.3725,31.1,90129.0,,,,,,,
4.08,,,,,,,,,221.367,-7.029,0.316,-7.091,-0.447,858.11,-25.805
4.085,-0.0117,0.8247,0.1567,-10.3641,-108.1933,-5.6022,31.1,90067.0,,,,,,,
4.09,,,,,,,,,221.096,-7.098,0.32,-7.022,-0.45,861.49,-25.805
4.095,0.0234,0.8149,0.1494,6.5826,-111.3445,-4.902,31.1,90085.0,,,,,,,
4.1,,,,,,,,,220.833,-7.164,0.326,-6.953,-0.456,865.61,-25.665
4.105,0.0278,0.8013,0.1387,6.1625,-113.0252,-4.1317,31.1,90016.0,,,,,,,
4.11,,,,,,,,,220.576,-7.232,0.321,-6.883,-0.452,869.72,-25.665
4.115,0.0435,0.812,0.1567,-5.8123,-105.042,-4.7619,31.1,89997.0,,,,,,,
4.12,,,,,,,,,220.321,-7.3,0.316,-6.812,-0.449,872.38,-25.59
4.125,0.0552,0.8232,0.1494,-3.2913,-107.493,-4.7619,31.1,89937.0,,,,,,,
4.13,,,,,,,,,220.063,-7.362,0.319,-6.744,-0.453,873.57,-25.562
4.135,-0.04,0.8135,0.1914,1.3305,-115.1261,-2.7311,31.1,89940.0,,,,,,,
4.14,,,,,,,,,219.811,-7.425,0.32,-6.674,-0.455,877.6,-25.562
4.145,0.083,0.812,0.1211,12.8852,-107.1429,-2.1008,31.1,89885.0,,,,,,,
4.15,,,,,,,,,219.559,-7.492,0.317,-6.599,-0.456,879.24,-25.403
4.155,0.0381,0.7983,0.167,-1.1204,-107.7731,-3.0812,31.1,89862.0,,,,,,,
4.16,,,,,,,,,219.315,-7.554,0.306,-6.529,-0.45,883.91,-25.375
4.165,0.061,0.812,0.1768,4.4118,-98.9496,-5.3922,31.1,89829.0,,,,,,,
4.17,,,,,,,,,219.069,-7.615,0.305,-6.457,-0.452,885.66,-25.375
4.175,0.0547,0.8135,0.1982,8.6134,-102.0308,-5.8123,31.0,89810.0,,,,,,,
4.18,,,,,,,,,218.833,-7.671,0.301,-6.391,-0.449,890.88,-25.347
4.185,-0.001,0.811,0.1528,2.2409,-104.5518,-3.5714,31.1,89754.0,,,,,,,
4.19,,,,,,,,,218.591,-7.729,0.295,-6.322,-0.443,891.15,-25.347
4.195,0.0483,0.8081,0.1572,-1.6106,-101.1204,-3.0112,31.1,89736.0,,,,,,,
4.2,,,,,,,,,218.357,-7.786,0.292,-6.251,-0.442,895.92,-25.347
4.205,0.0791,0.7852,0.1436,-0.7003,-99.5798,-3.1513,31.0,89695.0,,,,,,,
4.21,,,,,,,,,218.122,-7.841,0.292,-6.182,-0.444,898.03,-25.347
4.215,0.0547,0.7837,0.1978,13.8655,-97.549,-5.5322,31.1,89681.0,,,,,,,
4.22,,,,,,,,,217.89,-7.895,0.291,-6.113,-0.445,901.06,-25.347
4.225,0.0444,0.7974,0.1255,-9.4538,-94.958,-7.0728,31.1,89622.0,,,,,,,
4.23,,,,,,,,,217.657,-7.947,0.281,-6.046,-0.436,902.8,-25.328
4.235,0.0215,0.8022,0.2407,-9.7339,-103.6415,-6.0224,31.0,89607.0,,,,,,,
4.24,,,,,,,,,217.433,-7.997,0.288,-5.979,-0.439,907.94,-25.272
4.245,0.0347,0.7905,0.0825,1.9608,-96.4986,-4.0616,31.0,89570.0,,,,,,,
4.25,,,,,,,,,217.209,-8.051,0.295,-5.906,-0.442,909.6,-25.16
4.255,0.0508,0.7778,0.2134,-1.9608,-97.619,-4.6919,31.0,89549.0,,,,,,,
4.26,,,,,,,,,216.989,-8.101,0.292,-5.838,-0.441,913.36,-25.16
4.265,0.1274,0.7827,0.1543,8.1933,-96.8487,-6.1625,31.0,89518.0,,,,,,,
4.27,,,,,,,,,216.768,-8.151,0.293,-5.768,-0.441,914.65,-25.067
4.275,-0.0117,0.8027,0.1719,-2.3109,-90.6162,-7.2129,31.0,89443.0,,,,,,,
4.28,,,,,,,,,216.557,-8.2,0.287,-5.699,-0.435,920.07,-24.936
4.285,0.0625,0.7925,0.1426,-4.4818,-92.2269,-6.7927,31.0,89415.0,,,,,,,
4.29,,,,,,,,,216.344,-8.245,0.289,-5.633,-0.434,921.45,-24.936
4.295,0.0132,0.7876,0.1807,2.6611,-90.2661,-4.7619,31.0,89403.0,,,,,,,
4.3,,,,,,,,,216.135,-8.29,0.293,-5.566,-0.434,924.85,-24.936
4.305,0.062,0.7852,0.1748,-2.1709,-92.9272,-4.3417,31.0,89352.0,,,,,,,
4.31,,,,,,,,,215.924,-8.334,0.291,-5.5,-0.431,926.79,-24.936
4.315,0.0625,0.771,0.1255,5.4622,-93.9776,-6.0224,31.0,89348.0,,,,,,,
4.32,,,,,,,,,215.715,-8.379,0.291,-5.432,-0.432,929.64,-24.936
4.325,0.0527,0.7886,0.1392,3.5714,-87.8151,-8.2633,31.0,89325.0,,,,,,,
4.33,,,,,,,,,215.522,-8.424,0.287,-5.363,-0.427,936.54,-24.88
4.335,0.0278,0.7837,0.1851,-3.1513,-91.9468,-4.902,31.0,89259.0,,,,,,,
4.34,,,,,,,,,215.329,-8.465,0.286,-5.298,-0.422,939.12,-24.88
4.345,0.042,0.772,0.0615,-0.3501,-93.9776,-3.2213,31.0,89231.0,,,,,,,
4.35,,,,,,,,,215.133,-8.508,0.288,-5.229,-0.422,940.22,-24.833
4.355,0.0391,0.7671,0.2153,2.7311,-89.6359,-3.9216,31.0,89202.0,,,,,,,
4.36,,,,,,,,,214.945,-8.55,0.286,-5.159,-0.422,944.92,-24.833
4.365,0.0771,0.7764,0.1562,12.1849,-91.0364,-4.4118,31.0,89170.0,,,,,,,
4.37,,,,,,,,,214.751,-8.591,0.283,-5.092,-0.42,945.29,-24.833
4.375,0.0054,0.7661,0.1499,21.1485,-91.3165,-5.1821,31.0,89169.0,,,,,,,
4.38,,,,,,,,,214.556,-8.632,0.274,-5.023,-0.414,947.41,-24.805
4.385,0.0332,0.7842,0.1489,8.3333,-92.9972,-4.902,31.0,89115.0,,,,,,,
4.39,,,,,,,,,214.375,-8.672,0.257,-4.955,-0.403,953.5,-24.665
4.395,0.0151,0.7603,0.166,10.2241,-94.1176,-3.7115,31.0,89101.0,,,,,,,
4.4,,,,,,,,,214.195,-8.713,0.25,-4.884,-0.398,956.08,-24.665
4.405,0.0625,0.7676,0.1548,-3.5014,-95.7283,-3.9916,31.0,89052.0,,,,,,,
4.41,,,,,,,,,214.017,-8.753,0.241,-4.813,-0.393,958.76,-24.581
4.415,0.019,0.7637,0.1841,-9.1737,-94.8179,-4.972,31.0,89003.0,,,,,,,
4.42,,,,,,,,,213.84,-8.793,0.243,-4.739,-0.393,961.71,-24.581
4.425,0.0361,0.7612,0.1284,-3.9916,-103.1513,-5.5322,31.0,88975.0,,,,,,,
4.43,,,,,,,,,213.658,-8.832,0.25,-4.665,-0.395,961.8,-24.497
4.435,0.0298,0.7725,0.1479,7.6331,-100.4902,-5.042,31.0,88956.0,,,,,,,
4.44,,,,,,,,,213.484,-8.874,0.252,-4.585,-0.395,966.79,-24.488
4.445,0.0684,0.7754,0.2207,-0.2801,-91.3165,-4.902,31.0,88920.0,,,,,,,
4.45,,,,,,,,,213.307,-8.914,0.245,-4.507,-0.39,968.08,-24.488
4.455,-0.0059,0.7661,0.0918,1.7507,-93.6975,-3.5014,31.0,88888.0,,,,,,,
4.46,,,,,,,,,213.137,-8.95,0.245,-4.435,-0.389,972.61,-24.497
4.465,0.0957,0.7632,0.1934,9.7339,-100.2101,-4.2717,31.0,88908.0,,,,,,,
4.47,,,,,,,,,212.974,-8.986,0.242,-4.362,-0.387,977.14,-24.469
4.475,0.0093,0.7529,0.1411,3.0112,-93.9076,-3.7115,31.0,88827.0,,,,,,,
4.48,,,,,,,,,212.812,-9.024,0.233,-4.283,-0.382,979.73,-24.469
4.485,0.1001,0.7705,0.1621,-13.5154,-91.2465,-5.5322,31.0,88809.0,,,,,,,
4.49,,,,,,,,,212.649,-9.06,0.23,-4.209,-0.38,981.48,-24.422
4.495,-0.0176,0.7397,0.1904,-3.2213,-94.888,-3.6415,31.0,88803.0,,,,,,,
4.5,,,,,,,,,212.488,-9.093,0.24,-4.136,-0.383,984.81,-24.469
4.505,0.0762,0.7441,0.1538,3.0812,-96.6387,-3.5014,31.0,88715.0,,,,,,,
4.51,,,,,,,,,212.324,-9.127,0.241,-4.06,-0.383,985.92,-24.422
4.515,0.0649,0.7598,0.1387,13.2353,-90.8964,-4.2017,31.0,88696.0,,,,,,,
4.52,,,,,,,,,212.158,-9.161,0.238,-3.982,-0.381,987.78,-24.413
4.525,0.0249,0.7461,0.1807,-1.1905,-92.6471,-4.7619,31.0,88672.0,,,,,,,
4.53,,,,,,,,,212.003,-9.193,0.226,-3.91,-0.375,993.42,-24.413
4.535,0.0796,0.7446,0.0928,-7.6331,-94.0476,-5.9524,31.0,88652.0,,,,,,,
4.54,,,,,,,,,211.846,-9.224,0.226,-3.835,-0.373,995.09,-24.347
4.545,-0.0278,0.7446,0.21,-10.014,-93.9076,-5.7423,31.0,88600.0,,,,,,,
4.55,,,,,,,,,211.686,-9.256,0.232,-3.758,-0.373,995.64,-24.217
4.555,0.1182,0.7529,0.1118,-4.1317,-91.5266,-5.6723,31.0,88575.0,,,,,,,
4.56,,,,,,,,,211.544,-9.286,0.239,-3.682,-0.374,1003.8,-24.086
4.565,0.0186,0.7451,0.1987,3.0112,-92.577,-5.4622,31.0,88522.0,,,,,,,
4.57,,,,,,,,,211.401,-9.316,0.242,-3.607,-0.372,1005.56,-24.086
4.575,0.0347,0.7339,0.0708,-4.6919,-91.6667,-5.2521,31.0,88503.0,,,,,,,
4.58,,,,,,,,,211.258,-9.345,0.239,-3.531,-0.369,1007.79,-24.067
4.585,0.0474,0.7358,0.1948,-19.3978,-92.0868,-4.6218,31.0,88462.0,,,,,,,
4.59,,,,,,,,,211.113,-9.373,0.242,-3.456,-0.368,1009.64,-24.058
4.595,0.0532,0.7314,0.1172,-9.0336,-91.9468,-4.4818,31.0,88451.0,,,,,,,
4.6,,,,,,,,,210.976,-9.4,0.257,-3.38,-0.372,1014.46,-24.058
4.605,0.0596,0.7339,0.1572,2.381,-94.6078,-6.0924,31.0,88419.0,,,,,,,
4.61,,,,,,,,,210.838,-9.427,0.263,-3.303,-0.373,1016.79,-24.058
4.615,0.0273,0.7231,0.1201,14.7759,-95.6583,-6.7927,31.0,88412.0,,,,,,,
4.62,,,,,,,,,210.709,-9.454,0.261,-3.225,-0.369,1021.71,-24.058
4.625,0.0127,0.7329,0.127,-1.8908,-95.028,-5.9524,31.0,88341.0,,,,,,,
4.63,,,,,,,,,210.579,-9.481,0.248,-3.146,-0.362,1023.47,-23.89
4.635,0.0171,0.751,0.1846,3.3613,-90.8964,-4.4118,31.0,88333.0,,,,,,,
4.64,,,,,,,,,210.454,-9.507,0.249,-3.067,-0.359,1027.28,-23.852
4.645,0.0474,0.7178,0.1196,-1.9608,-90.4762,-5.112,31.0,88273.0,,,,,,,
4.65,,,,,,,,,210.325,-9.532,0.245,-2.991,-0.357,1028.3,-23.852
4.655,-0.0049,0.7363,0.1528,5.6022,-90.8263,-6.3725,31.0,88262.0,,,,,,,
4.66,,,,,,,,,210.198,-9.555,0.246,-2.915,-0.355,1031.27,-23.852
4.665,0.0801,0.7485,0.1694,12.8852,-95.8683,-5.9524,31.0,88241.0,,,,,,,
4.67,,,,,,,,,210.065,-9.578,0.24,-2.839,-0.35,1031.92,-23.852
4.675,-0.0225,0.7188,0.1309,11.4146,-89.6359,-4.7619,31.0,88178.0,,,,,,,
4.68,,,,,,,,,209.945,-9.602,0.229,-2.759,-0.344,1038.53,-23.852
4.685,0.0645,0.7295,0.1143,-4.0616,-92.7871,-4.902,31.0,88164.0,,,,,,,
4.69,,,,,,,,,209.821,-9.624,0.218,-2.684,-0.339,1039.27,-23.834
4.695,0.022,0.7129,0.1455,-8.7535,-93.9076,-4.7619,31.0,88137.0,,,,,,,
4.7,,,,,,,,,209.706,-9.646,0.221,-2.605,-0.337,1044.85,-23.834
4.705,0.0312,0.7305,0.168,-0.4202,-89.986,-5.7423,31.0,88112.0,,,,,,,
4.71,,,,,,,,,209.588,-9.667,0.227,-2.526,-0.337,1045.88,-23.768
4.715,0.0278,0.7324,0.1709,-10.1541,-93.4874,-5.6022,31.0,88072.0,,,,,,,
4.72,,,,,,,,,209.468,-9.686,0.226,-2.449,-0.334,1047.83,-23.787
4.725,0.0312,0.7261,0.1118,-3.8515,-98.9496,-5.5322,31.0,88027.0,,,,,,,
4.73,,,,,,,,,209.359,-9.706,0.234,-2.369,-0.333,1053.7,-23.787
4.735,0.0024,0.7173,0.1729,-9.6639,-99.2297,-4.902,31.0,87997.0,,,,,,,
4.74,,,,,,,,,209.247,-9.726,0.236,-2.285,-0.331,1055.0,-23.768
4.745,0.0645,0.7197,0.1177,8.0532,-95.8683,-5.042,31.0,87980.0,,,,,,,
4.75,,,,,,,,,209.135,-9.746,0.243,-2.2,-0.331,1057.52,-23.768
4.755,0.0229,0.7217,0.146,-4.6218,-96.0084,-5.042,31.0,87946.0,,,,,,,
4.76,,,,,,,,,209.023,-9.764,0.235,-2.118,-0.327,1059.85,-23.703
4.765,0.0361,0.7109,0.1519,-3.0112,-94.3277,-4.6919,31.0,87894.0,,,,,,,
4.77,,,,,,,,,208.916,-9.782,0.238,-2.036,-0.325,1063.58,-23.619
4.775,0.0391,0.7188,0.1045,-2.521,-99.7899,-4.2017,31.0,87903.0,,,,,,,
4.78,,,,,,,,,208.815,-9.798,0.239,-1.955,-0.324,1067.77,-23.619
4.785,-0.0005,0.7129,0.167,4.3417,-98.1092,-3.7815,31.0,87867.0,,,,,,,
4.79,,,,,,,,,208.715,-9.815,0.24,-1.869,-0.323,1070.57,-23.581
4.795,0.0879,0.7163,0.1528,6.1625,-97.409,-4.4118,31.0,87847.0,,,,,,,
4.8,,,,,,,,,208.613,-9.831,0.234,-1.785,-0.321,1072.16,-23.581
4.805,0.0098,0.6958,0.1553,3.5014,-93.9776,-5.5322,31.0,87773.0,,,,,,,
4.81,,,,,,,,,208.513,-9.846,0.228,-1.701,-0.318,1075.33,-23.563
4.815,0.0503,0.7134,0.1338,-10.7843,-96.0084,-5.8824,31.0,87767.0,,,,,,,
4.82,,,,,,,,,208.418,-9.86,0.223,-1.62,-0.314,1079.35,-23.535
4.825,0.0088,0.709,0.1357,-3.7815,-102.2409,-4.972,31.0,87736.0,,,,,,,
4.83,,,,,,,,,208.318,-9.873,0.232,-1.537,-0.312,1080.19,-23.516
4.835,0.041,0.7075,0.1753,8.8235,-99.5798,-4.6218,31.0,87712.0,,,,,,,
4.84,,,,,,,,,208.219,-9.886,0.233,-1.448,-0.31,1082.71,-23.46
4.845,0.0444,0.7065,0.1104,-2.3109,-99.7899,-5.042,31.0,87685.0,,,,,,,
4.85,,,,,,,,,208.119,-9.899,0.224,-1.362,-0.307,1084.58,-23.451
4.855,0.0552,0.6899,0.144,-3.3613,-99.2297,-6.0924,31.0,87653.0,,,,,,,
4.86,,,,,,,,,208.033,-9.911,0.225,-1.275,-0.305,1091.49,-23.413
4.865,0.0254,0.7031,0.106,-10.8543,-98.8796,-6.0224,31.0,87641.0,,,,,,,
4.87,,,,,,,,,207.941,-9.921,0.226,-1.189,-0.302,1092.05,-23.376
4.875,0.0146,0.7119,0.2285,-1.5406,-100.2101,-5.112,31.0,87612.0,,,,,,,
4.88,,,,,,,,,207.851,-9.931,0.234,-1.102,-0.299,1094.95,-23.348
4.885,0.0698,0.6904,0.1099,5.5322,-93.7675,-4.4818,31.0,87561.0,,,,,,,
4.89,,,,,,,,,207.76,-9.941,0.234,-1.015,-0.297,1097.2,-23.348
4.895,0.0449,0.6851,0.1167,-2.591,-97.6891,-5.112,31.0,87532.0,,,,,,,
4.9,,,,,,,,,207.67,-9.949,0.228,-0.934,-0.294,1099.73,-23.329
4.905,0.0605,0.7007,0.1514,-2.1709,-96.4986,-6.0924,31.0,87507.0,,,,,,,
4.91,,,,,,,,,207.581,-9.956,0.228,-0.848,-0.292,1102.72,-23.329
4.915,-0.0068,0.6948,0.1343,1.0504,-97.7591,-4.8319,31.0,87475.0,,,,,,,
4.92,,,,,,,,,207.489,-9.963,0.229,-0.764,-0.289,1103.84,-23.264
4.925,0.0596,0.7031,0.1636,7.2129,-97.0588,-4.8319,31.0,87416.0,,,,,,,
4.93,,,,,,,,,207.398,-9.97,0.226,-0.679,-0.286,1106.56,-23.217
4.935,0.0469,0.687,0.1089,14.8459,-96.7087,-5.3221,31.0,87400.0,,,,,,,
4.94,,,,,,,,,207.315,-9.975,0.219,-0.594,-0.283,1111.34,-23.217
4.945,0.0493,0.6836,0.1113,5.8824,-100.8403,-6.2325,31.0,87379.0,,,,,,,
4.95,,,,,,,,,207.233,-9.98,0.204,-0.51,-0.279,1114.05,-23.105
4.955,0.043,0.6846,0.1479,2.7311,-99.0896,-6.7927,31.0,87331.0,,,,,,,
4.96,,,,,,,,,207.151,-9.985,0.197,-0.422,-0.275,1116.4,-23.105
4.965,0.0317,0.6943,0.123,-7.7731,-103.9216,-4.6919,31.0,87334.0,,,,,,,
4.97,,,,,,,,,207.071,-9.988,0.193,-0.335,-0.271,1119.39,-23.021
4.975,0.0615,0.6753,0.0825,-9.8739,-109.4538,-5.042,31.0,87304.0,,,,,,,
4.98,,,,,,,,,207.001,-9.991,0.198,-0.244,-0.268,1124.93,-23.021
4.985,0.0806,0.6831,0.1138,4.972,-107.3529,-5.9524,31.0,87258.0,,,,,,,
4.99,,,,,,,,,206.928,-9.993,0.205,-0.148,-0.266,1126.43,-22.955
4.995,0.0068,0.6924,0.1812,-2.0308,-105.5322,-5.7423,31.0,87250.0,,,,,,,
5.0,,,,,,,,,206.854,-9.994,0.199,-0.054,-0.262,1128.4,-22.955
5.005,0.0972,0.6768,0.0796,-3.5714,-110.7843,-5.3922,31.0,87210.0,,,,,,,
5.01,,,,,,,,,206.785,-9.994,0.199,0.038,-0.259,1132.62,-22.955
5.015,0.001,0.6821,0.1357,-0.7703,-111.6947,-3.6415,31.0,87178.0,,,,,,,
5.02,,,,,,,,,206.71,-9.993,0.2,0.135,-0.256,1132.91,-22.909
5.025,0.1392,0.6758,0.082,0.5602,-108.4034,-4.2017,31.0,87157.0,,,,,,,
5.03,,,,,,,,,206.635,-9.992,0.199,0.232,-0.254,1135.44,-22.89
5.035,0.0098,0.6836,0.186,7.0028,-108.3333,-4.7619,31.0,87109.0,,,,,,,
5.04,,,,,,,,,206.566,-9.989,0.196,0.327,-0.252,1139.76,-22.881
5.045,0.1001,0.6753,0.0752,4.2717,-111.8347,-5.1821,31.0,87086.0,,,,,,,
5.05,,,,,,,,,206.491,-9.986,0.188,0.422,-0.25,1140.51,-22.881
5.055,0.0522,0.6763,0.146,-0.2801,-115.1261,-4.4818,31.0,87068.0,,,,,,,
5.06,,,,,,,,,206.421,-9.981,0.182,0.519,-0.247,1144.27,-22.862
5.065,0.0532,0.6733,0.1274,2.8011,-114.7759,-3.9916,31.0,87005.0,,,,,,,
5.07,,,,,,,,,206.353,-9.976,0.18,0.62,-0.245,1147.28,-22.759
5.075,0.0674,0.6763,0.1401,-1.2605,-118.4874,-3.5014,31.0,86988.0,,,,,,,
5.08,,,,,,,,,206.284,-9.969,0.176,0.72,-0.243,1149.25,-22.759
5.085,0.0703,0.6743,0.1353,7.9132,-116.5266,-4.3417,31.0,86972.0,,,,,,,
5.09,,,,,,,,,206.221,-9.961,0.175,0.824,-0.242,1153.77,-22.75
5.095,0.0815,0.6797,0.1001,7.1429,-117.1569,-5.6723,31.0,86959.0,,,,,,,
5.1,,,,,,,,,206.157,-9.952,0.166,0.925,-0.24,1155.93,-22.75
5.105,0.0288,0.6758,0.1138,5.2521,-112.605,-6.1625,31.0,86909.0,,,,,,,
5.11,,,,,,,,,206.09,-9.943,0.157,1.027,-0.237,1157.63,-22.75
5.115,0.0728,0.6724,0.1343,2.3109,-116.1064,-6.5126,31.0,86874.0,,,,,,,
5.12,,,,,,,,,206.034,-9.932,0.15,1.125,-0.233,1163.56,-22.741
5.125,0.0566,0.6621,0.1704,-1.6106,-111.0644,-5.5322,31.0,86887.0,,,,,,,
5.13,,,,,,,,,205.975,-9.92,0.146,1.226,-0.229,1165.16,-22.741
5.135,0.0845,0.667,0.1279,5.8123,-116.1064,-6.0224,31.0,86832.0,,,,,,,
5.14,,,,,,,,,205.914,-9.908,0.145,1.322,-0.225,1166.67,-22.731
5.145,0.0698,0.6616,0.1172,-7.9132,-114.5658,-7.2129,31.0,86823.0,,,,,,,
5.15,,,,,,,,,205.848,-9.894,0.137,1.423,-0.222,1167.89,-22.712
5.155,0.0552,0.6543,0.1245,-11.3445,-109.8039,-8.1933,31.0,86777.0,,,,,,,
5.16,,,,,,,,,205.79,-9.88,0.142,1.522,-0.216,1172.6,-22.694
5.165,0.0493,0.6685,0.1577,-9.8739,-118.3473,-8.1933,31.0,86736.0,,,,,,,
5.17,,,,,,,,,205.73,-9.864,0.149,1.617,-0.208,1174.67,-22.675
5.175,0.0674,0.666,0.1313,-8.5434,-119.3277,-8.3333,31.0,86729.0,,,,,,,
5.18,,,,,,,,,205.667,-9.847,0.154,1.719,-0.201,1175.9,-22.6
5.185,0.0586,0.6509,0.1284,-13.9356,-121.5686,-8.1933,31.0,86686.0,,,,,,,
5.19,,,,,,,,,205.609,-9.829,0.159,1.822,-0.194,1179.86,-22.572
5.195,0.1172,0.6655,0.1401,-15.4762,-120.9384,-8.6835,31.0,86664.0,,,,,,,
5.2,,,,,,,,,205.546,-9.809,0.168,1.927,-0.186,1180.71,-22.554
5.205,0.0088,0.6602,0.1538,6.3025,-119.1877,-8.3333,31.0,86647.0,,,,,,,
5.21,,,,,,,,,205.489,-9.788,0.178,2.031,-0.177,1185.05,-22.544
5.215,0.0728,0.6528,0.1372,13.3754,-118.4874,-7.493,31.0,86635.0,,,,,,,
5.22,,,,,,,,,205.436,-9.766,0.17,2.133,-0.173,1188.92,-22.479
5.225,0.0273,0.6372,0.1392,10.4342,-123.9496,-6.5826,31.0,86582.0,,,,,,,
5.23,,,,,,,,,205.378,-9.744,0.156,2.234,-0.17,1189.58,-22.47
5.235,0.084,0.6431,0.1182,1.2605,-122.549,-8.7535,31.0,86556.0,,,,,,,
5.24,,,,,,,,,205.325,-9.719,0.144,2.34,-0.168,1193.64,-22.442
5.245,0.0537,0.6323,0.1367,1.4706,-123.7395,-9.8039,31.0,86520.0,,,,,,,
5.25,,,,,,,,,205.272,-9.694,0.14,2.444,-0.162,1195.72,-22.329
5.255,0.0347,0.646,0.1479,-3.3613,-121.4286,-9.4538,31.0,86511.0,,,,,,,
5.26,,,,,,,,,205.216,-9.667,0.136,2.549,-0.155,1197.32,-22.301
5.265,0.019,0.6494,0.1299,7.6331,-119.1877,-7.6331,31.0,86497.0,,,,,,,
5.27,,,,,,,,,205.157,-9.639,0.135,2.651,-0.148,1198.46,-22.264
5.275,0.0576,0.6274,0.1206,11.5546,-120.4482,-6.8627,31.0,86440.0,,,,,,,
5.28,,,,,,,,,205.105,-9.611,0.126,2.752,-0.144,1203.47,-22.236
5.285,0.0405,0.647,0.1606,10.6443,-124.3697,-9.3137,31.0,86395.0,,,,,,,
5.29,,,,,,,,,205.054,-9.582,0.114,2.853,-0.142,1205.93,-22.171
5.295,0.0269,0.6533,0.0977,8.2633,-117.577,-9.5238,31.0,86396.0,,,,,,,
5.3,,,,,,,,,205.005,-9.551,0.101,2.957,-0.138,1209.33,-22.171
5.305,0.02,0.6514,0.1289,-2.3109,-123.4594,-7.9832,31.0,86339.0,,,,,,,
5.31,,,,,,,,,204.952,-9.52,0.091,3.055,-0.132,1210.18,-22.171
5.315,0.042,0.6328,0.1206,2.521,-121.9888,-6.8627,31.0,86316.0,,,,,,,
5.32,,,,,,,,,204.895,-9.486,0.09,3.158,-0.126,1211.51,-22.171
5.325,0.0728,0.6309,0.1235,5.6022,-121.8487,-6.8627,31.0,86266.0,,,,,,,
5.33,,,,,,,,,204.846,-9.452,0.085,3.259,-0.121,1216.9,-22.171
5.335,0.0547,0.6255,0.1191,11.7647,-122.3389,-8.0532,31.0,86264.0,,,,,,,
5.34,,,,,,,,,204.803,-9.417,0.078,3.359,-0.118,1221.07,-22.171
5.345,0.0391,0.6426,0.1377,16.5966,-121.2885,-8.0532,31.0,86231.0,,,,,,,
5.35,,,,,,,,,204.752,-9.381,0.065,3.46,-0.115,1221.16,-22.171
5.355,0.0254,0.6357,0.1187,14.1457,-124.6499,-6.5826,31.0,86215.0,,,,,,,
5.36,,,,,,,,,204.711,-9.344,0.048,3.559,-0.114,1226.47,-22.105
5.365,0.0239,0.6377,0.0889,14.5658,-124.2997,-5.2521,31.0,86163.0,,,,,,,
5.37,,,,,,,,,204.669,-9.305,0.034,3.66,-0.113,1228.65,-21.974
5.375,0.1094,0.6411,0.1279,4.902,-129.5518,-5.7423,31.0,86156.0,,,,,,,
5.38,,,,,,,,,204.634,-9.264,0.019,3.761,-0.113,1233.39,-22.012
5.385,-0.0176,0.6343,0.1284,-6.4426,-120.7283,-5.8824,31.0,86077.0,,,,,,,
5.39,,,,,,,,,204.592,-9.221,0.013,3.866,-0.11,1233.58,-22.012
5.395,0.0806,0.6353,0.1304,-5.6022,-124.4398,-6.3025,31.0,86101.0,,,,,,,
5.4,,,,,,,,,204.551,-9.18,0.015,3.963,-0.103,1236.71,-21.974
5.405,0.043,0.6318,0.1138,2.1008,-124.6499,-5.6723,31.0,86091.0,,,,,,,
5.41,,,,,,,,,204.508,-9.136,0.017,4.063,-0.095,1238.23,-21.965
5.415,0.0327,0.6294,0.1294,3.1513,-121.7787,-5.1821,31.0,86047.0,,,,,,,
5.42,,,,,,,,,204.472,-9.091,0.012,4.162,-0.091,1243.16,-21.965
5.425,0.0376,0.6284,0.1152,6.3725,-127.6611,-3.5014,31.0,85992.0,,,,,,,
5.43,,,,,,,,,204.431,-9.047,0.007,4.259,-0.088,1243.82,-21.965
5.435,0.0713,0.6206,0.1465,0.1401,-126.3305,-3.5714,31.0,86000.0,,,,,,,
5.44,,,,,,,,,204.397,-8.999,0.001,4.359,-0.087,1249.05,-21.965
5.445,0.0645,0.6172,0.0786,-9.1737,-125.5602,-5.1821,31.0,85953.0,,,,,,,
5.45,,,,,,,,,204.359,-8.95,0.0,4.459,-0.084,1249.99,-21.946
5.455,0.0415,0.6143,0.1147,-2.7311,-124.7899,-6.5826,31.0,85927.0,,,,,,,
5.46,,,,,,,,,204.318,-8.9,0.003,4.557,-0.076,1251.32,-21.9
5.465,0.085,0.6274,0.1226,0.9804,-125.9104,-6.0224,31.0,85899.0,,,,,,,
5.47,,,,,,,,,204.278,-8.85,0.002,4.654,-0.069,1254.17,-21.853
5.475,0.002,0.627,0.1372,0.2801,-124.7899,-4.2017,31.0,85874.0,,,,,,,
5.48,,,,,,,,,204.244,-8.798,0.0,4.751,-0.065,1258.64,-21.834
5.485,0.0732,0.6167,0.1094,-1.3305,-125.0,-3.2913,31.0,85855.0,,,,,,,
5.49,,,,,,,,,204.205,-8.746,-0.003,4.846,-0.061,1259.4,-21.816
5.495,0.0869,0.6006,0.1357,-3.4314,-131.5826,-4.3417,31.0,85838.0,,,,,,,
5.5,,,,,,,,,204.17,-8.693,-0.003,4.942,-0.057,1263.11,-21.806
5.505,0.0449,0.6079,0.105,0.8403,-129.0616,-6.6527,31.0,85799.0,,,,,,,
5.51,,,,,,,,,204.135,-8.635,-0.003,5.042,-0.052,1265.58,-21.685
5.515,0.0415,0.6206,0.1528,1.8908,-128.2913,-7.493,30.9,85754.0,,,,,,,
5.52,,,,,,,,,204.102,-8.578,-0.007,5.139,-0.047,1268.24,-21.619
5.525,0.0459,0.624,0.1025,-8.9636,-125.6303,-6.7227,31.0,85740.0,,,,,,,
5.53,,,,,,,,,204.068,-8.52,-0.012,5.235,-0.042,1270.63,-21.619
5.535,0.0405,0.5986,0.1157,-10.2941,-128.7115,-5.6022,31.0,85703.0,,,,,,,
5.54,,,,,,,,,204.032,-8.462,-0.008,5.328,-0.032,1272.43,-21.619
5.545,0.082,0.6123,0.1196,-6.5126,-128.0112,-6.2325,31.0,85700.0,,,,,,,
5.55,,,,,,,,,203.993,-8.401,-0.003,5.423,-0.022,1274.05,-21.61
5.555,0.0532,0.6074,0.1147,0.4902,-126.3305,-7.2129,31.0,85667.0,,,,,,,
5.56,,,,,,,,,203.958,-8.34,-0.001,5.517,-0.014,1277.76,-21.61
5.565,0.0581,0.6079,0.1328,-2.521,-123.4594,-7.9832,31.0,85611.0,,,,,,,
5.57,,,,,,,,,203.928,-8.278,-0.005,5.608,-0.009,1282.05,-21.526
5.575,0.0146,0.6021,0.0757,-9.3137,-127.3109,-7.7031,31.0,85596.0,,,,,,,
5.58,,,,,,,,,203.896,-8.217,-0.007,5.697,-0.001,1283.39,-21.442
5.585,0.084,0.6123,0.1553,0.6303,-125.9804,-7.493,31.0,85558.0,,,,,,,
5.59,,,,,,,,,203.867,-8.153,-0.003,5.789,0.009,1286.91,-21.442
5.595,0.0811,0.5986,0.1523,-4.4118,-126.9608,-8.3333,31.0,85583.0,,,,,,,
5.6,,,,,,,,,203.832,-8.089,-0.007,5.878,0.014,1287.2,-21.442
5.605,0.0459,0.604,0.0796,-3.5014,-126.4706,-8.9636,31.0,85522.0,,,,,,,
5.61,,,,,,,,,203.798,-8.023,-0.008,5.967,0.023,1290.34,-21.442
5.615,0.0293,0.5962,0.1421,-0.7003,-122.549,-8.6835,31.0,85469.0,,,,,,,
5.62,,,,,,,,,203.772,-7.957,-0.01,6.056,0.032,1295.69,-21.433
5.625,0.0366,0.6113,0.1382,-0.5602,-126.0504,-7.423,30.9,85443.0,,,,,,,
5.63,,,,,,,,,203.744,-7.892,-0.013,6.141,0.039,1297.12,-21.367
5.635,0.0664,0.6064,0.1162,5.3221,-124.0196,-7.1429,31.0,85431.0,,,,,,,
5.64,,,,,,,,,203.711,-7.823,-0.016,6.227,0.045,1298.36,-21.433
5.645,0.0337,0.5815,0.1035,3.7115,-125.8403,-7.423,31.0,85418.0,,,,,,,
5.65,,,,,,,,,203.678,-7.755,-0.023,6.312,0.048,1300.74,-21.414
5.655,0.0688,0.6035,0.126,-3.8515,-130.042,-7.7031,31.0,85378.0,,,,,,,
5.66,,,,,,,,,203.648,-7.685,-0.028,6.397,0.051,1304.18,-21.367
5.665,0.0112,0.6118,0.1455,3.7815,-125.7703,-7.2129,31.0,85384.0,,,,,,,
5.67,,,,,,,,,203.626,-7.612,-0.029,6.484,0.06,1309.24,-21.358
5.675,0.04,0.5933,0.1177,0.9804,-128.7815,-5.5322,30.9,85330.0,,,,,,,
5.68,,,,,,,,,203.603,-7.54,-0.035,6.567,0.063,1311.73,-21.367
5.685,0.0566,0.584,0.1172,-5.6022,-130.112,-5.112,31.0,85300.0,,,,,,,
5.69,,,,,,,,,203.576,-7.466,-0.038,6.652,0.067,1312.87,-21.358
5.695,0.0513,0.5854,0.1318,-1.5406,-128.7815,-6.5826,31.0,85310.0,,,,,,,
5.7,,,,,,,,,203.546,-7.39,-0.036,6.736,0.075,1314.12,-21.358
5.705,0.0361,0.5938,0.1416,5.6723,-131.7227,-7.563,31.0,85249.0,,,,,,,
5.71,,,,,,,,,203.518,-7.313,-0.038,6.819,0.081,1317.37,-21.218
5.715,0.0215,0.5884,0.125,11.1345,-129.2017,-7.493,31.0,85240.0,,,,,,,
5.72,,,,,,,,,203.486,-7.234,-0.045,6.903,0.083,1317.94,-21.171
5.725,0.0493,0.5874,0.1021,1.4006,-128.5714,-7.2829,31.0,85217.0,,,,,,,
5.73,,,,,,,,,203.46,-7.156,-0.055,6.984,0.082,1322.53,-21.162
5.735,0.0503,0.5815,0.1338,15.8964,-129.5518,-6.5826,31.0,85167.0,,,,,,,
5.74,,,,,,,,,203.432,-7.076,-0.059,7.064,0.087,1324.44,-21.068
5.745,0.04,0.5771,0.1045,10.4342,-129.5518,-6.0924,31.0,85157.0,,,,,,,
5.75,,,,,,,,,203.4,-6.996,-0.072,7.144,0.083,1325.4,-21.068
5.755,0.0444,0.5747,0.1416,4.4118,-132.7031,-5.3922,31.0,85123.0,,,,,,,
5.76,,,,,,,,,203.375,-6.914,-0.081,7.222,0.081,1330.28,-21.049
5.765,0.0557,0.5874,0.0903,5.042,-129.6218,-5.8824,31.0,85096.0,,,,,,,
5.77,,,,,,,,,203.346,-6.83,-0.086,7.302,0.083,1331.14,-21.012
5.775,0.0176,0.5718,0.084,6.2325,-129.8319,-5.8824,31.0,85061.0,,,,,,,
5.78,,,,,,,,,203.316,-6.747,-0.091,7.379,0.085,1333.35,-21.012
5.785,0.0786,0.5923,0.147,9.6639,-129.7619,-6.5826,31.0,85048.0,,,,,,,
5.79,,,,,,,,,203.292,-6.662,-0.097,7.455,0.086,1338.14,-21.012
5.795,0.0098,0.5859,0.0811,7.7031,-127.521,-6.3725,31.0,85041.0,,,,,,,
5.8,,,,,,,,,203.263,-6.577,-0.106,7.53,0.085,1339.09,-21.049
5.805,0.0835,0.5845,0.1367,-3.5714,-131.3725,-7.2829,31.0,84987.0,,,,,,,
5.81,,,,,,,,,203.236,-6.493,-0.114,7.603,0.086,1342.35,-21.021
5.815,-0.0088,0.5718,0.0972,1.0504,-129.4118,-6.4426,31.0,84968.0,,,,,,,
5.82,,,,,,,,,203.21,-6.405,-0.115,7.677,0.094,1344.94,-20.993
5.825,0.1104,0.5762,0.0991,1.8908,-130.4622,-6.8627,30.9,84918.0,,,,,,,
5.83,,,,,,,,,203.187,-6.318,-0.119,7.749,0.099,1348.3,-20.937
5.835,-0.021,0.5806,0.1172,7.7731,-128.6415,-6.1625,30.9,84881.0,,,,,,,
5.84,,,,,,,,,203.161,-6.229,-0.123,7.821,0.103,1349.54,-20.853
5.845,0.0835,0.5654,0.0908,-6.4426,-128.7815,-6.3025,31.0,84884.0,,,,,,,
5.85,,,,,,,,,203.129,-6.14,-0.13,7.89,0.103,1350.21,-20.919
5.855,0.0439,0.564,0.0996,-5.112,-125.6303,-5.8824,31.0,84844.0,,,,,,,
5.86,,,,,,,,,203.105,-6.051,-0.13,7.959,0.113,1355.4,-20.919
5.865,0.0415,0.5659,0.0942,-3.9216,-125.07,-5.7423,30.9,84828.0,,,,,,,
5.87,,,,,,,,,203.079,-5.963,-0.13,8.025,0.122,1357.22,-20.835
5.875,0.0503,0.5688,0.0928,4.4818,-124.1597,-5.8123,31.0,84810.0,,,,,,,
5.88,,,,,,,,,203.06,-5.875,-0.13,8.089,0.13,1362.02,-20.835
5.885,0.0312,0.5698,0.106,4.2717,-124.2997,-5.3221,31.0,84758.0,,,,,,,
5.89,,,,,,,,,203.044,-5.787,-0.135,8.153,0.132,1365.29,-20.75
5.895,0.084,0.5669,0.1152,6.0224,-124.2997,-6.0924,31.0,84773.0,,,,,,,
5.9,,,,,,,,,203.022,-5.698,-0.139,8.215,0.133,1365.57,-20.713
5.905,0.0229,0.562,0.1001,1.3305,-123.6695,-6.5126,31.0,84706.0,,,,,,,
5.91,,,,,,,,,203.002,-5.608,-0.145,8.276,0.134,1369.13,-20.694
5.915,0.0186,0.5659,0.0747,-4.2017,-126.6807,-6.5126,31.0,84696.0,,,,,,,
5.92,,,,,,,,,202.98,-5.518,-0.149,8.336,0.139,1370.67,-20.657
5.925,0.0664,0.5625,0.127,5.042,-122.9692,-6.8627,30.9,84665.0,,,,,,,
5.93,,,,,,,,,202.956,-5.425,-0.15,8.397,0.147,1372.4,-20.638
5.935,0.0342,0.5586,0.0903,1.5406,-119.958,-6.8627,30.9,84646.0,,,,,,,
5.94,,,,,,,,,202.935,-5.334,-0.156,8.455,0.149,1375.95,-20.638
5.945,0.0562,0.5698,0.1123,6.3725,-121.4286,-7.1429,30.9,84608.0,,,,,,,
5.95,,,,,,,,,202.911,-5.245,-0.16,8.51,0.153,1377.4,-20.638
5.955,0.0405,0.563,0.0918,1.0504,-120.6583,-7.493,30.9,84588.0,,,,,,,
5.96,,,,,,,,,202.894,-5.155,-0.166,8.565,0.154,1382.4,-20.638
5.965,0.0356,0.5552,0.1206,1.2605,-124.0896,-7.0728,31.0,84567.0,,,,,,,
5.97,,,,,,,,,202.872,-5.064,-0.171,8.619,0.159,1383.36,-20.638
5.975,0.0469,0.543,0.0972,1.8207,-124.2297,-6.0224,31.0,84539.0,,,,,,,
5.98,,,,,,,,,202.852,-4.97,-0.175,8.674,0.164,1386.35,-20.582
5.985,0.0659,0.5503,0.1191,-2.521,-128.0112,-5.4622,31.0,84507.0,,,,,,,
5.99,,,,,,,,,202.831,-4.875,-0.178,8.727,0.167,1388.18,-20.573
5.995,0.0337,0.5586,0.104,5.112,-120.6583,-6.6527,31.0,84501.0,,,,,,,
6.0,,,,,,,,,202.812,-4.777,-0.179,8.781,0.174,1391.83,-20.564
6.005,0.043,0.5527,0.106,-2.1709,-124.6499,-6.7927,30.9,84474.0,,,,,,,
6.01,,,,,,,,,202.792,-4.684,-0.185,8.831,0.175,1393.76,-20.498
6.015,0.0332,0.5537,0.1079,0.2101,-128.9916,-5.9524,31.0,84442.0,,,,,,,
6.02,,,,,,,,,202.771,-4.587,-0.187,8.881,0.183,1395.78,-20.498
6.025,0.0566,0.54,0.0903,-1.8908,-128.4314,-6.0924,31.0,84399.0,,,,,,,
6.03,,,,,,,,,202.751,-4.487,-0.19,8.932,0.187,1398.48,-20.433
6.035,0.0439,0.5459,0.1157,5.3221,-129.902,-6.6527,30.9,84380.0,,,,,,,
6.04,,,,,,,,,202.733,-4.386,-0.191,8.982,0.194,1401.57,-20.405
6.045,0.0337,0.5557,0.1099,8.6835,-125.7003,-6.4426,31.0,84348.0,,,,,,,
6.05,,,,,,,,,202.709,-4.284,-0.196,9.031,0.195,1402.15,-20.386
6.055,0.042,0.5498,0.1021,2.1008,-124.1597,-5.8123,30.9,84324.0,,,,,,,
6.06,,,,,,,,,202.686,-4.184,-0.203,9.078,0.194,1404.75,-20.386
6.065,0.0522,0.5571,0.1284,8.7535,-123.2493,-5.6022,30.9,84331.0,,,,,,,
6.07,,,,,,,,,202.664,-4.085,-0.206,9.122,0.197,1407.84,-20.339
6.075,0.04,0.5581,0.1069,-5.112,-124.0196,-5.4622,30.9,84288.0,,,,,,,
6.08,,,,,,,,,202.647,-3.986,-0.211,9.166,0.195,1411.99,-20.386
6.085,0.0352,0.5459,0.1387,-4.7619,-125.07,-5.042,30.9,84270.0,,,,,,,
6.09,,,,,,,,,202.628,-3.886,-0.212,9.208,0.204,1413.82,-20.405
6.095,0.0469,0.5449,0.1025,-0.9104,-123.1092,-4.8319,30.9,84241.0,,,,,,,
6.1,,,,,,,,,202.61,-3.785,-0.212,9.25,0.212,1416.91,-20.386
6.105,0.0527,0.5425,0.1294,2.3109,-126.6106,-5.112,30.9,84232.0,,,,,,,
6.11,,,,,,,,,202.59,-3.686,-0.213,9.29,0.217,1418.55,-20.33
6.115,0.0479,0.5439,0.0713,1.1204,-128.1513,-5.6022,31.0,84174.0,,,,,,,
6.12,,,,,,,,,202.566,-3.582,-0.216,9.331,0.22,1419.23,-20.255
6.125,0.0244,0.5454,0.1304,0.8403,-127.8711,-5.9524,31.0,84167.0,,,,,,,
6.13,,,,,,,,,202.544,-3.477,-0.218,9.37,0.224,1422.71,-20.255
6.135,0.0562,0.5469,0.0884,3.0812,-127.9412,-5.9524,30.9,84132.0,,,,,,,
6.14,,,,,,,,,202.52,-3.372,-0.221,9.408,0.228,1424.45,-20.255
6.145,0.0576,0.5391,0.0991,7.2829,-123.8796,-6.1625,30.9,84109.0,,,,,,,
6.15,,,,,,,,,202.497,-3.267,-0.224,9.445,0.23,1427.25,-20.255
6.155,0.0513,0.5356,0.1343,-0.4202,-127.1008,-6.2325,30.9,84087.0,,,,,,,
6.16,,,,,,,,,202.47,-3.164,-0.229,9.48,0.229,1428.12,-20.246
6.165,0.0347,0.5259,0.0728,7.563,-125.2101,-5.4622,30.9,84050.0,,,,,,,
6.17,,,,,,,,,202.451,-3.058,-0.231,9.515,0.234,1433.73,-20.237
6.175,0.0742,0.5415,0.1133,1.7507,-125.2101,-5.8824,31.0,84040.0,,,,,,,
6.18,,,,,,,,,202.427,-2.954,-0.235,9.547,0.233,1434.4,-20.218
6.185,0.0259,0.5352,0.0894,2.7311,-122.8291,-6.1625,30.9,83980.0,,,,,,,
6.19,,,,,,,,,202.406,-2.849,-0.238,9.579,0.236,1437.79,-20.19
6.195,0.0449,0.5215,0.1108,7.7731,-119.2577,-5.9524,30.9,83979.0,,,,,,,
6.2,,,,,,,,,202.384,-2.746,-0.241,9.609,0.238,1440.01,-20.171
6.205,0.0591,0.5376,0.1162,-2.8011,-120.5182,-6.4426,30.9,83943.0,,,,,,,
6.21,,,,,,,,,202.362,-2.645,-0.246,9.637,0.236,1442.14,-20.125
6.215,0.0488,0.5356,0.0908,5.3221,-121.9188,-7.0028,31.0,83939.0,,,,,,,
6.22,,,,,,,,,202.343,-2.543,-0.248,9.664,0.243,1445.73,-20.096
6.225,0.0347,0.5376,0.0728,8.8235,-123.8095,-7.2829,31.0,83904.0,,,,,,,
6.23,,,,,,,,,202.319,-2.44,-0.253,9.691,0.244,1446.69,-20.059
6.235,0.0513,0.5244,0.1138,-2.8711,-123.7395,-7.493,30.9,83891.0,,,,,,,
6.24,,,,,,,,,202.306,-2.334,-0.258,9.717,0.241,1452.51,-20.059
6.245,0.0312,0.5239,0.0991,-0.4902,-124.2297,-7.423,30.9,83853.0,,,,,,,
6.25,,,,,,,,,202.285,-2.229,-0.261,9.741,0.249,1452.6,-20.059
6.255,0.043,0.522,0.0981,5.4622,-120.3782,-7.9832,30.9,83824.0,,,,,,,
6.26,,,,,,,,,202.267,-2.123,-0.265,9.765,0.254,1456.09,-20.05
6.265,0.0371,0.5337,0.0869,-3.9916,-123.2493,-8.5434,31.0,83795.0,,,,,,,
6.27,,,,,,,,,202.243,-2.019,-0.27,9.786,0.254,1456.48,-20.05
6.275,0.0166,0.5278,0.0986,-1.9608,-124.8599,-8.4034,31.0,83790.0,,,,,,,
6.28,,,,,,,,,202.221,-1.914,-0.274,9.807,0.262,1459.87,-20.022
6.285,0.0337,0.5303,0.0923,-9.8039,-124.2997,-7.9832,31.0,83754.0,,,,,,,
6.29,,,,,,,,,202.198,-1.806,-0.278,9.827,0.269,1461.14,-19.91
6.295,0.0366,0.5273,0.0874,-2.7311,-121.0784,-7.7031,30.9,83722.0,,,,,,,
6.3,,,,,,,,,202.177,-1.7,-0.281,9.846,0.282,1464.82,-19.956
6.305,0.0566,0.5171,0.1055,3.7115,-120.6583,-8.2633,31.0,83676.0,,,,,,,
6.31,,,,,,,,,202.157,-1.595,-0.284,9.863,0.289,1467.64,-19.91
6.315,0.0239,0.5249,0.0547,5.5322,-116.5966,-8.2633,30.9,83679.0,,,,,,,
6.32,,,,,,,,,202.139,-1.491,-0.289,9.879,0.291,1470.45,-19.9
6.325,0.0322,0.5288,0.1333,1.1204,-120.1681,-7.9132,30.9,83642.0,,,,,,,
6.33,,,,,,,,,202.115,-1.389,-0.294,9.894,0.291,1470.94,-19.854
6.335,-0.001,0.522,0.0742,-0.2801,-119.2577,-6.4426,30.9,83623.0,,,,,,,
6.34,,,,,,,,,202.093,-1.285,-0.298,9.908,0.294,1474.43,-19.9
6.345,0.0444,0.5146,0.1187,4.1317,-119.6779,-5.3221,30.9,83605.0,,,,,,,
6.35,,,,,,,,,202.073,-1.182,-0.3,9.92,0.299,1477.54,-19.9
6.355,0.0532,0.5161,0.1152,4.0616,-118.9076,-5.8123,30.9,83565.0,,,,,,,
6.36,,,,,,,,,202.058,-1.077,-0.302,9.932,0.3,1481.72,-19.9
6.365,0.0225,0.5166,0.0854,2.9412,-121.0784,-7.0728,30.9,83543.0,,,,,,,
6.37,,,,,,,,,202.037,-0.974,-0.305,9.943,0.301,1482.01,-19.854
6.375,0.0449,0.521,0.1113,3.0112,-117.7171,-7.0728,30.9,83525.0,,,,,,,
6.38,,,,,,,,,202.019,-0.868,-0.308,9.952,0.302,1485.31,-19.798
6.385,0.0059,0.5181,0.1064,8.6835,-117.2969,-5.8824,30.9,83506.0,,,,,,,
6.39,,,,,,,,,201.998,-0.765,-0.312,9.961,0.304,1487.16,-19.779
6.395,0.0361,0.5107,0.1021,4.6919,-125.5602,-4.3417,31.0,83458.0,,,,,,,
6.4,,,,,,,,,201.977,-0.663,-0.314,9.968,0.301,1488.91,-19.723
6.405,0.0674,0.5078,0.0898,0.4902,-123.7395,-4.6218,30.9,83476.0,,,,,,,
6.41,,,,,,,,,201.959,-0.553,-0.315,9.975,0.301,1492.8,-19.723
6.415,0.0122,0.5083,0.1143,-0.4202,-122.6891,-4.972,30.9,83415.0,,,,,,,
6.42,,,,,,,,,201.941,-0.445,-0.316,9.98,0.305,1494.95,-19.695
6.425,0.0591,0.5103,0.0728,1.0504,-119.0476,-5.042,30.9,83416.0,,,,,,,
6.43,,,,,,,,,201.92,-0.338,-0.317,9.984,0.309,1496.7,-19.685
6.435,0.0068,0.5166,0.1392,1.8207,-121.0784,-4.2017,30.9,83373.0,,,,,,,
6.44,,,,,,,,,201.898,-0.234,-0.319,9.987,0.312,1498.55,-19.657
6.445,0.0327,0.5127,0.0879,5.8824,-119.4678,-3.1513,30.9,83344.0,,,,,,,
6.45,,,,,,,,,201.877,-0.128,-0.319,9.989,0.315,1501.47,-19.685
6.455,0.0757,0.5098,0.105,1.3305,-121.9188,-3.7115,30.9,83327.0,,,,,,,
6.46,,,,,,,,,201.854,-0.023,-0.319,9.989,0.314,1503.22,-19.62
6.465,0.0171,0.5054,0.0708,-4.3417,-121.0784,-3.8515,30.9,83293.0,,,,,,,
6.47,,,,,,,,,201.836,0.083,-0.319,9.989,0.316,1507.31,-19.583
6.475,0.0737,0.5068,0.126,-0.2101,-122.2689,-4.6919,30.9,83272.0,,,,,,,
6.48,,,,,,,,,201.811,0.188,-0.32,9.987,0.324,1507.41,-19.573
6.485,0.0098,0.5005,0.0913,5.112,-119.1176,-3.9916,30.9,83265.0,,,,,,,
6.49,,,,,,,,,201.791,0.295,-0.32,9.985,0.328,1511.5,-19.564
6.495,0.0625,0.4902,0.0542,3.5714,-121.3585,-3.7815,30.9,83229.0,,,,,,,
6.5,,,,,,,,,201.772,0.399,-0.321,9.981,0.328,1514.33,-19.536
6.505,0.0488,0.4995,0.1099,-1.7507,-119.6779,-3.9216,30.9,83192.0,,,,,,,
6.51,,,,,,,,,201.751,0.506,-0.32,9.976,0.328,1515.99,-19.536
6.515,0.0391,0.5024,0.1128,3.7115,-116.3165,-4.6919,30.9,83186.0,,,,,,,
6.52,,,,,,,,,201.732,0.61,-0.321,9.97,0.333,1519.3,-19.508
6.525,0.0483,0.4946,0.0845,7.7031,-118.0672,-5.042,30.9,83173.0,,,,,,,
6.53,,,,,,,,,201.713,0.712,-0.322,9.963,0.334,1521.35,-19.48
6.535,0.061,0.4951,0.0981,0.7703,-116.8768,-5.8123,30.9,83139.0,,,,,,,
6.54,,,,,,,,,201.689,0.815,-0.322,9.955,0.331,1522.03,-19.424
6.545,0.0693,0.498,0.1562,-0.3501,-118.0672,-5.8123,30.9,83100.0,,,,,,,
6.55,,,,,,,,,201.668,0.917,-0.324,9.946,0.333,1525.55,-19.386
6.555,0.0225,0.5005,0.0801,-0.4202,-120.1681,-5.042,30.9,83085.0,,,,,,,
6.56,,,,,,,,,201.65,1.02,-0.326,9.936,0.337,1529.16,-19.368
6.565,0.0591,0.4946,0.0986,0.9104,-122.8992,-5.112,30.9,83088.0,,,,,,,
6.57,,,,,,,,,201.627,1.124,-0.327,9.925,0.341,1529.74,-19.368
6.575,0.0332,0.4946,0.0801,1.2605,-118.4174,-5.8123,30.9,83046.0,,,,,,,
6.58,,,,,,,,,201.601,1.231,-0.328,9.912,0.344,1531.02,-19.34
6.585,0.0547,0.4976,0.0942,0.0,-120.028,-6.7227,30.9,83013.0,,,,,,,
6.59,,,,,,,,,201.577,1.334,-0.33,9.899,0.346,1534.34,-19.284
6.595,0.0649,0.4956,0.1123,5.9524,-118.9076,-7.7731,31.0,83010.0,,,,,,,
6.6,,,,,,,,,201.557,1.438,-0.332,9.884,0.349,1538.15,-19.33
6.605,0.0103,0.4971,0.0732,8.1232,-119.8179,-7.563,30.9,82971.0,,,,,,,
6.61,,,,,,,,,201.534,1.541,-0.335,9.868,0.347,1539.32,-19.293
6.615,0.0576,0.4917,0.1001,-0.1401,-121.3585,-6.5126,31.0,82942.0,,,,,,,
6.62,,,,,,,,,201.504,1.645,-0.337,9.851,0.343,1539.61,-19.293
6.625,0.0449,0.4805,0.0747,7.2829,-119.3978,-6.3025,31.0,82916.0,,,,,,,
6.63,,,,,,,,,201.478,1.749,-0.339,9.833,0.346,1543.43,-19.293
6.635,0.0474,0.4829,0.1152,-1.0504,-118.9776,-7.1429,30.9,82893.0,,,,,,,
6.64,,,,,,,,,201.455,1.852,-0.34,9.814,0.343,1546.65,-19.293
6.645,0.0654,0.4824,0.0874,-4.7619,-119.3978,-8.1933,30.9,82872.0,,,,,,,
6.65,,,,,,,,,201.425,1.954,-0.343,9.794,0.347,1546.95,-19.274
6.655,0.0142,0.5015,0.1055,0.7703,-119.8179,-8.1933,30.9,82839.0,,,,,,,
6.66,,,,,,,,,201.399,2.057,-0.348,9.773,0.354,1550.76,-19.274
6.665,0.0366,0.4956,0.0732,-0.3501,-117.3669,-7.1429,30.9,82805.0,,,,,,,
6.67,,,,,,,,,201.374,2.159,-0.351,9.751,0.356,1553.6,-19.274
6.675,0.0361,0.4858,0.0962,1.1905,-118.8375,-6.3025,30.9,82772.0,,,,,,,
6.68,,,,,,,,,201.349,2.26,-0.354,9.728,0.359,1556.15,-19.293
6.685,0.061,0.4868,0.1147,-0.4202,-118.0672,-6.2325,30.9,82762.0,,,,,,,
6.69,,,,,,,,,201.324,2.361,-0.356,9.703,0.361,1558.4,-19.218
6.695,0.0537,0.4873,0.0513,-4.0616,-118.4174,-6.7927,30.9,82754.0,,,,,,,
6.7,,,,,,,,,201.299,2.461,-0.358,9.678,0.364,1560.46,-19.125
6.705,0.0015,0.48,0.1343,0.4202,-118.3473,-7.0028,30.9,82712.0,,,,,,,
6.71,,,,,,,,,201.276,2.561,-0.361,9.652,0.37,1563.69,-19.125
6.715,0.0361,0.4883,0.0615,-3.8515,-117.9272,-6.0224,30.9,82710.0,,,,,,,
6.72,,,,,,,,,201.256,2.661,-0.363,9.625,0.372,1567.02,-19.106
6.725,0.0415,0.4741,0.105,0.6303,-119.6779,-5.8824,30.9,82702.0,,,,,,,
6.73,,,,,,,,,201.238,2.76,-0.366,9.596,0.378,1570.25,-19.125
6.735,0.0405,0.4839,0.0996,0.4902,-119.0476,-6.2325,30.9,82658.0,,,,,,,
6.74,,,,,,,,,201.215,2.861,-0.367,9.567,0.381,1571.24,-19.125
6.745,0.0439,0.4912,0.1143,-0.2801,-118.5574,-6.7227,30.9,82637.0,,,,,,,
6.75,,,,,,,,,201.188,2.961,-0.368,9.536,0.383,1572.02,-19.125
6.755,0.0107,0.4829,0.0942,-1.6807,-120.3782,-6.3025,30.9,82608.0,,,,,,,
6.76,,,,,,,,,201.165,3.059,-0.37,9.505,0.386,1576.14,-19.125
6.765,0.0249,0.4683,0.0938,3.3613,-119.1176,-5.3221,30.9,82589.0,,,,,,,
6.77,,,,,,,,,201.136,3.16,-0.372,9.472,0.39,1576.34,-19.106
6.775,0.0596,0.4707,0.0986,0.4902,-117.6471,-5.4622,30.9,82564.0,,,,,,,
6.78,,,,,,,,,201.102,3.258,-0.372,9.438,0.39,1577.12,-19.069
6.785,0.0146,0.4673,0.0996,0.5602,-116.3866,-6.1625,30.9,82544.0,,,,,,,
6.79,,,,,,,,,201.075,3.355,-0.373,9.404,0.392,1581.44,-19.05
6.795,0.0522,0.4766,0.0918,0.2801,-118.4874,-6.6527,30.9,82518.0,,,,,,,
6.8,,,,,,,,,201.046,3.451,-0.374,9.369,0.394,1583.5,-18.994
6.805,-0.0034,0.4858,0.1118,4.4118,-118.8375,-6.3725,30.9,82497.0,,,,,,,
6.81,,,,,,,,,201.019,3.548,-0.376,9.333,0.396,1586.35,-18.929
6.815,0.0537,0.4653,0.0591,-0.3501,-124.0196,-5.8824,30.9,82461.0,,,,,,,
6.82,,,,,,,,,200.991,3.646,-0.376,9.295,0.395,1588.21,-18.929
6.825,0.0142,0.4653,0.1333,8.5434,-121.7087,-6.0224,30.9,82470.0,,,,,,,
6.83,,,,,,,,,200.963,3.746,-0.377,9.255,0.398,1590.67,-18.929
6.835,0.0649,0.4736,0.0732,2.8011,-119.3978,-6.4426,30.9,82416.0,,,,,,,
6.84,,,,,,,,,200.934,3.845,-0.375,9.214,0.394,1592.63,-18.817
6.845,0.0059,0.4775,0.1079,6.3725,-118.1373,-6.4426,30.9,82407.0,,,,,,,
6.85,,,,,,,,,200.905,3.941,-0.376,9.174,0.394,1595.19,-18.817
6.855,0.0332,0.4771,0.0747,-0.6303,-121.9888,-5.8824,30.9,82364.0,,,,,,,
6.86,,,,,,,,,200.876,4.036,-0.375,9.132,0.391,1597.26,-18.817
6.865,0.0552,0.4722,0.1309,-2.591,-121.6387,-5.5322,30.9,82352.0,,,,,,,
6.87,,,,,,,,,200.847,4.134,-0.376,9.089,0.393,1599.91,-18.873
6.875,0.0005,0.4707,0.0703,2.0308,-121.5686,-4.902,30.9,82360.0,,,,,,,
6.88,,,,,,,,,200.813,4.23,-0.378,9.044,0.398,1600.79,-18.873
6.885,0.0508,0.4697,0.124,6.5826,-119.0476,-4.972,30.9,82293.0,,,,,,,
6.89,,,,,,,,,200.784,4.327,-0.377,8.998,0.399,1605.22,-18.873
6.895,0.0459,0.4644,0.0503,4.4118,-123.5994,-5.2521,30.9,82290.0,,,,,,,
6.9,,,,,,,,,200.752,4.42,-0.375,8.953,0.396,1606.11,-18.845
6.905,0.0381,0.4766,0.1182,0.9804,-123.5294,-5.6723,30.9,82261.0,,,,,,,
6.91,,,,,,,,,200.725,4.517,-0.373,8.904,0.395,1610.34,-18.817
6.915,0.0117,0.4688,0.0659,0.4202,-118.0672,-5.042,30.9,82204.0,,,,,,,
6.92,,,,,,,,,200.692,4.613,-0.373,8.855,0.397,1610.73,-18.845
6.925,0.0488,0.4609,0.1035,0.3501,-123.5994,-4.1317,30.9,82224.0,,,,,,,
6.93,,,,,,,,,200.654,4.705,-0.374,8.806,0.398,1611.52,-18.845
6.935,0.0195,0.4653,0.0991,-1.1204,-123.3193,-3.3613,30.9,82169.0,,,,,,,
6.94,,,,,,,,,200.626,4.8,-0.373,8.755,0.401,1617.33,-18.817
6.945,0.0708,0.4614,0.0654,2.7311,-120.7983,-4.0616,30.9,82153.0,,,,,,,
6.95,,,,,,,,,200.592,4.894,-0.372,8.702,0.405,1617.63,-18.798
6.955,0.0176,0.4565,0.0952,1.2605,-119.0476,-4.8319,30.9,82137.0,,,,,,,
6.96,,,,,,,,,200.56,4.986,-0.37,8.65,0.405,1620.48,-18.779
6.965,0.0396,0.4614,0.0747,1.0504,-119.3978,-4.6919,30.9,82122.0,,,,,,,
6.97,,,,,,,,,200.532,5.076,-0.369,8.598,0.406,1624.13,-18.714
6.975,0.0283,0.4585,0.0977,2.591,-120.2381,-4.0616,30.9,82103.0,,,,,,,
6.98,,,,,,,,,200.502,5.166,-0.369,8.544,0.408,1626.1,-18.695
6.985,0.0557,0.4604,0.0591,3.2213,-121.7787,-4.3417,30.9,82076.0,,,,,,,
6.99,,,,,,,,,200.476,5.255,-0.367,8.489,0.408,1629.55,-18.639
6.995,0.0391,0.4497,0.0913,-6.3025,-120.5882,-4.8319,30.9,82061.0,,,,,,,
7.0,,,,,,,,,200.447,5.346,-0.365,8.433,0.408,1631.13,-18.639
7.005,0.041,0.46,0.0854,-6.6527,-119.888,-5.8824,30.9,82003.0,,,,,,,
7.01,,,,,,,,,200.416,5.434,-0.367,8.375,0.415,1632.71,-18.63
7.015,0.0361,0.457,0.0942,2.381,-118.5574,-6.0924,30.9,81984.0,,,,,,,
7.02,,,,,,,,,200.383,5.522,-0.371,8.317,0.421,1634.19,-18.62
7.025,0.0386,0.4565,0.0918,0.4202,-123.1793,-5.8824,30.9,81969.0,,,,,,,
7.03,,,,,,,,,200.348,5.608,-0.37,8.26,0.42,1636.06,-18.611
7.035,0.0464,0.4526,0.1006,1.7507,-122.549,-6.0224,30.9,81947.0,,,,,,,
7.04,,,,,,,,,200.314,5.697,-0.37,8.198,0.421,1638.73,-18.583
7.045,0.042,0.4556,0.0728,-2.1008,-120.4482,-6.3725,30.9,81918.0,,,,,,,
7.05,,,,,,,,,200.278,5.785,-0.37,8.137,0.422,1640.21,-18.555
7.055,0.0273,0.4541,0.0859,-0.9104,-122.0588,-6.7927,30.9,81911.0,,,,,,,
7.06,,,,,,,,,200.251,5.87,-0.371,8.075,0.424,1645.94,-18.555
7.065,0.042,0.4521,0.0913,3.5014,-124.93,-6.7227,30.9,81895.0,,,,,,,
7.07,,,,,,,,,200.222,5.956,-0.372,8.012,0.425,1647.82,-18.546
7.075,0.0347,0.4492,0.0674,0.9104,-121.2885,-7.0728,30.9,81863.0,,,,,,,
7.08,,,,,,,,,200.191,6.044,-0.371,7.946,0.424,1649.3,-18.527
7.085,0.0381,0.4517,0.0977,3.1513,-123.0392,-7.2829,30.9,81838.0,,,,,,,
7.09,,,,,,,,,200.16,6.128,-0.372,7.881,0.424,1651.47,-18.499
7.095,0.0605,0.4575,0.0786,2.521,-119.4678,-7.493,30.9,81834.0,,,,,,,
7.1,,,,,,,,,200.13,6.213,-0.371,7.815,0.422,1654.34,-18.499
7.105,0.019,0.4473,0.0894,6.0924,-121.4986,-6.9328,30.9,81779.0,,,,,,,
7.11,,,,,,,,,200.094,6.295,-0.371,7.749,0.42,1655.03,-18.499
7.115,0.0269,0.4502,0.0801,-5.2521,-120.7983,-5.8824,30.9,81807.0,,,,,,,
7.12,,,,,,,,,200.057,6.377,-0.368,7.682,0.417,1656.62,-18.471
7.125,0.0586,0.4404,0.1001,-0.9804,-121.4986,-6.1625,30.9,81749.0,,,,,,,
7.13,,,,,,,,,200.022,6.458,-0.371,7.614,0.421,1659.78,-18.461
7.135,0.0474,0.4414,0.0654,0.8403,-120.098,-7.2829,30.9,81745.0,,,,,,,
7.14,,,,,,,,,199.988,6.539,-0.372,7.544,0.422,1662.25,-18.452
7.145,0.0132,0.4409,0.0967,-3.7115,-117.577,-8.1232,30.9,81717.0,,,,,,,
7.15,,,,,,,,,199.948,6.618,-0.372,7.475,0.422,1662.65,-18.424
7.155,0.0449,0.4468,0.0659,-1.3305,-120.5882,-7.563,30.9,81683.0,,,,,,,
7.16,,,,,,,,,199.909,6.694,-0.376,7.406,0.424,1665.32,-18.405
7.165,0.0059,0.4438,0.125,4.7619,-121.4986,-6.4426,30.9,81647.0,,,,,,,
7.17,,,,,,,,,199.871,6.772,-0.378,7.335,0.424,1668.09,-18.368
7.175,0.0425,0.438,0.0933,3.1513,-116.2465,-7.2129,30.9,81637.0,,,,,,,
7.18,,,,,,,,,199.835,6.85,-0.375,7.262,0.422,1671.06,-18.359
7.185,0.0308,0.4395,0.0791,-2.3109,-118.6275,-8.4034,30.9,81627.0,,,,,,,
7.19,,,,,,,,,199.794,6.924,-0.374,7.192,0.419,1671.46,-18.303
7.195,0.0371,0.4434,0.0835,-2.1709,-116.7367,-8.1933,30.9,81565.0,,,,,,,
7.2,,,,,,,,,199.755,6.999,-0.377,7.119,0.42,1674.23,-18.256
7.205,0.0132,0.4365,0.1001,1.3305,-116.4566,-7.0028,30.9,81562.0,,,,,,,
7.21,,,,,,,,,199.718,7.071,-0.379,7.047,0.42,1677.6,-18.256
7.215,0.0288,0.4375,0.0532,-1.7507,-116.8768,-6.1625,30.9,81560.0,,,,,,,
7.22,,,,,,,,,199.684,7.143,-0.379,6.974,0.419,1681.17,-18.247
7.225,0.0459,0.4214,0.0991,3.2213,-119.1176,-6.0924,30.9,81506.0,,,,,,,
7.23,,,,,,,,,199.647,7.214,-0.38,6.901,0.421,1682.16,-18.247
7.235,0.0303,0.4341,0.0684,1.6106,-118.0672,-6.9328,30.9,81507.0,,,,,,,
7.24,,,,,,,,,199.606,7.286,-0.378,6.825,0.419,1683.15,-18.219
7.245,0.0342,0.4424,0.0981,-3.5714,-114.7759,-7.563,30.9,81476.0,,,,,,,
7.25,,,,,,,,,199.576,7.356,-0.377,6.749,0.418,1689.3,-18.191
7.255,0.0215,0.4292,0.0718,0.2801,-115.8263,-7.3529,30.9,81474.0,,,,,,,
7.26,,,,,,,,,199.54,7.424,-0.38,6.675,0.419,1689.6,-18.191
7.265,0.0288,0.4219,0.0747,-0.7003,-117.437,-6.7227,30.9,81421.0,,,,,,,
7.27,,,,,,,,,199.498,7.491,-0.381,6.599,0.418,1689.8,-18.181
7.275,0.0278,0.4272,0.0698,1.0504,-118.4174,-6.1625,30.9,81418.0,,,,,,,
7.28,,,,,,,,,199.464,7.559,-0.381,6.521,0.418,1695.06,-18.163
7.285,0.0347,0.4282,0.0947,4.3417,-116.0364,-6.2325,30.9,81365.0,,,,,,,
7.29,,,,,,,,,199.424,7.626,-0.381,6.442,0.418,1695.16,-18.116
7.295,0.0527,0.4321,0.0776,0.2101,-117.9972,-6.7227,30.9,81356.0,,,,,,,
7.3,,,,,,,,,199.387,7.692,-0.377,6.365,0.415,1698.14,-18.022
7.305,0.0215,0.4189,0.0679,2.2409,-116.3866,-6.9328,30.9,81358.0,,,,,,,
7.31,,,,,,,,,199.343,7.757,-0.377,6.285,0.415,1698.34,-18.022
7.315,0.0415,0.4316,0.0791,6.6527,-116.6667,-6.7227,30.9,81340.0,,,,,,,
7.32,,,,,,,,,199.308,7.821,-0.376,6.205,0.413,1703.6,-18.004
7.325,0.0361,0.4385,0.0732,-1.8908,-116.2465,-6.0224,30.9,81267.0,,,,,,,
7.33,,,,,,,,,199.267,7.884,-0.371,6.125,0.408,1703.9,-18.022
7.335,0.043,0.4282,0.0737,3.7815,-114.4258,-5.6022,30.9,81266.0,,,,,,,
7.34,,,,,,,,,199.234,7.946,-0.372,6.044,0.409,1709.17,-18.022
7.345,0.043,0.4292,0.0806,0.4902,-113.4454,-5.6022,30.9,81247.0,,,,,,,
7.35,,,,,,,,,199.196,8.007,-0.369,5.964,0.407,1709.86,-18.004
7.355,0.0161,0.4321,0.0781,-2.451,-116.7367,-5.1821,30.9,81227.0,,,,,,,
7.36,,,,,,,,,199.152,8.066,-0.368,5.884,0.407,1710.06,-18.004
7.365,0.0474,0.4209,0.0757,-3.0112,-117.6471,-4.7619,30.9,81210.0,,,,,,,
7.37,,,,,,,,,199.106,8.126,-0.369,5.801,0.408,1711.65,-18.022
7.375,0.0332,0.4155,0.0825,-0.2801,-114.8459,-5.2521,30.9,81202.0,,,,,,,
7.38,,,,,,,,,199.074,8.185,-0.37,5.717,0.41,1718.92,-18.022
7.385,0.0522,0.4243,0.0552,-0.7003,-115.1261,-5.3922,30.9,81147.0,,,,,,,
7.39,,,,,,,,,199.035,8.242,-0.369,5.634,0.411,1719.01,-18.022
7.395,0.0269,0.4229,0.0845,-0.9804,-113.5854,-5.4622,30.9,81148.0,,,,,,,
7.4,,,,,,,,,198.995,8.299,-0.369,5.551,0.411,1720.91,-18.004
7.405,0.0396,0.4131,0.0566,-1.6106,-115.3361,-5.112,30.9,81111.0,,,,,,,
7.41,,,,,,,,,198.954,8.354,-0.369,5.468,0.411,1722.9,-18.004
7.415,0.0483,0.4229,0.0825,-0.7003,-115.5462,-5.1821,31.0,81121.0,,,,,,,
7.42,,,,,,,,,198.912,8.408,-0.369,5.383,0.412,1724.59,-17.929
7.425,0.0405,0.4194,0.0854,-6.2325,-113.6555,-5.3221,30.9,81105.0,,,,,,,
7.43,,,,,,,,,198.865,8.463,-0.368,5.298,0.412,1725.39,-17.901
7.435,0.0405,0.4082,0.0654,3.6415,-112.9552,-5.5322,30.9,81053.0,,,,,,,
7.44,,,,,,,,,198.827,8.515,-0.372,5.213,0.415,1730.76,-17.901
7.445,0.0566,0.417,0.0801,-1.7507,-113.9356,-6.3725,30.9,81033.0,,,,,,,
7.45,,,,,,,,,198.783,8.566,-0.368,5.128,0.413,1730.86,-17.864
7.455,0.0303,0.418,0.0596,-0.7003,-111.4846,-6.7927,30.9,81007.0,,,,,,,
7.46,,,,,,,,,198.74,8.617,-0.369,5.042,0.413,1733.45,-17.836
7.465,0.0483,0.4038,0.0635,0.8403,-112.535,-6.5826,30.9,81010.0,,,,,,,
7.47,,,,,,,,,198.694,8.666,-0.369,4.958,0.412,1734.45,-17.807
7.475,0.0518,0.4102,0.0771,-1.2605,-112.8852,-6.7227,30.9,81001.0,,,,,,,
7.48,,,,,,,,,198.643,8.715,-0.367,4.872,0.41,1735.05,-17.807
7.485,0.0601,0.4155,0.0835,7.9132,-113.3754,-6.8627,30.9,80948.0,,,,,,,
7.49,,,,,,,,,198.599,8.763,-0.368,4.785,0.409,1740.23,-17.789
7.495,0.0454,0.4014,0.0464,-1.1905,-110.2941,-6.5126,30.9,80922.0,,,,,,,
7.5,,,,,,,,,198.556,8.81,-0.361,4.698,0.404,1742.23,-17.761
7.505,0.0459,0.4048,0.0913,2.1709,-110.4342,-6.0924,30.9,80911.0,,,,,,,
7.51,,,,,,,,,198.511,8.855,-0.361,4.613,0.403,1744.52,-17.761
7.515,0.0508,0.4048,0.0708,2.8011,-111.3445,-6.7227,30.9,80885.0,,,,,,,
7.52,,,,,,,,,198.463,8.9,-0.359,4.527,0.401,1744.82,-17.658
7.525,0.0454,0.4009,0.0884,5.042,-110.8543,-7.9132,30.9,80864.0,,,,,,,
7.53,,,,,,,,,198.409,8.944,-0.356,4.44,0.399,1745.42,-17.621
7.535,0.0366,0.4136,0.0654,1.4006,-110.084,-8.6134,30.9,80848.0,,,,,,,
7.54,,,,,,,,,198.365,8.987,-0.352,4.353,0.394,1750.71,-17.555
7.545,0.0396,0.4165,0.061,-3.3613,-110.9944,-8.4734,30.9,80813.0,,,,,,,
7.55,,,,,,,,,198.321,9.028,-0.351,4.266,0.39,1753.31,-17.555
7.555,0.04,0.4136,0.0854,-0.4202,-111.6246,-7.9132,30.9,80802.0,,,,,,,
7.56,,,,,,,,,198.274,9.07,-0.354,4.178,0.388,1754.41,-17.555
7.565,0.0308,0.4067,0.0986,-0.6303,-112.1148,-7.423,30.9,80783.0,,,,,,,
7.57,,,,,,,,,198.227,9.11,-0.354,4.089,0.385,1757.0,-17.658
7.575,0.0649,0.4004,0.0513,-0.6303,-112.3249,-7.423,30.9,80758.0,,,,,,,
7.58,,,,,,,,,198.179,9.15,-0.353,3.999,0.383,1759.1,-17.593
7.585,0.0439,0.4038,0.0571,-2.7311,-109.7339,-8.4034,30.9,80733.0,,,,,,,
7.59,,,,,,,,,198.13,9.189,-0.353,3.908,0.381,1760.7,-17.555
7.595,0.0464,0.4111,0.0669,-0.4202,-108.8936,-8.7535,30.9,80703.0,,,,,,,
7.6,,,,,,,,,198.085,9.226,-0.355,3.82,0.379,1764.2,-17.555
7.605,0.0181,0.4028,0.0947,1.1204,-109.944,-7.7731,30.9,80690.0,,,,,,,
7.61,,,,,,,,,198.035,9.263,-0.356,3.731,0.375,1765.3,-17.593
7.615,0.0396,0.4102,0.0615,-4.2017,-110.7143,-6.8627,30.9,80665.0,,,,,,,
7.62,,,,,,,,,197.984,9.298,-0.354,3.642,0.372,1767.2,-17.593
7.625,0.0337,0.4038,0.0698,-1.5406,-111.0644,-6.8627,30.9,80650.0,,,,,,,
7.63,,,,,,,,,197.933,9.333,-0.357,3.551,0.371,1769.7,-17.658
7.635,0.0532,0.4009,0.0488,1.9608,-108.1232,-7.8431,30.9,80630.0,,,,,,,
7.64,,,,,,,,,197.883,9.368,-0.357,3.46,0.369,1772.2,-17.593
7.645,0.0371,0.4092,0.0923,4.1317,-106.0924,-8.5434,30.9,80608.0,,,,,,,
7.65,,,,,,,,,197.836,9.4,-0.355,3.371,0.366,1775.2,-17.537
7.655,0.0132,0.4058,0.0796,2.591,-104.6919,-7.9132,30.9,80580.0,,,,,,,
7.66,,,,,,,,,197.785,9.431,-0.351,3.283,0.361,1776.5,-17.537
7.665,0.0405,0.3955,0.0708,-0.2101,-108.0532,-6.5126,30.9,80554.0,,,,,,,
7.67,,,,,,,,,197.736,9.461,-0.349,3.197,0.357,1779.01,-17.537
7.675,0.0093,0.3975,0.0742,0.7003,-107.9132,-5.7423,30.9,80531.0,,,,,,,
7.68,,,,,,,,,197.684,9.491,-0.348,3.107,0.354,1780.51,-17.537
7.685,0.0684,0.4033,0.0928,0.2801,-105.112,-6.0924,30.9,80529.0,,,,,,,
7.69,,,,,,,,,197.631,9.521,-0.346,3.017,0.353,1782.51,-17.537
7.695,0.0107,0.3989,0.0503,-1.7507,-107.0028,-6.6527,30.9,80485.0,,,,,,,
7.7,,,,,,,,,197.578,9.548,-0.345,2.929,0.351,1784.71,-17.527
7.705,0.0459,0.4038,0.0923,-3.2213,-105.7423,-6.8627,31.0,80481.0,,,,,,,
7.71,,,,,,,,,197.526,9.575,-0.345,2.839,0.349,1787.52,-17.527
7.715,0.0171,0.3984,0.0757,-2.8711,-107.9832,-6.1625,30.9,80447.0,,,,,,,
7.72,,,,,,,,,197.475,9.601,-0.347,2.75,0.347,1790.12,-17.527
7.725,0.0229,0.394,0.0674,-1.0504,-108.0532,-5.112,30.9,80460.0,,,,,,,
7.73,,,,,,,,,197.424,9.627,-0.348,2.659,0.346,1792.43,-17.48
7.735,0.0547,0.3901,0.0874,0.8403,-107.563,-5.3221,30.9,80412.0,,,,,,,
7.74,,,,,,,,,197.368,9.652,-0.348,2.568,0.345,1792.63,-17.443
7.745,0.022,0.3892,0.042,-1.1905,-108.7535,-5.6022,30.9,80380.0,,,,,,,
7.75,,,,,,,,,197.318,9.676,-0.346,2.476,0.343,1797.04,-17.434
7.755,0.0439,0.3936,0.127,-0.4202,-107.423,-6.2325,30.9,80367.0,,,,,,,
7.76,,,,,,,,,197.263,9.699,-0.345,2.384,0.342,1797.44,-17.415
7.765,0.0151,0.3936,0.0381,0.7703,-108.1232,-5.4622,30.9,80366.0,,,,,,,
7.77,,,,,,,,,197.207,9.721,-0.344,2.293,0.34,1799.55,-17.415
7.775,0.0576,0.3936,0.1025,0.9104,-110.014,-5.112,30.9,80334.0,,,,,,,
7.78,,,,,,,,,197.15,9.742,-0.342,2.2,0.338,1800.85,-17.35
7.785,0.0137,0.3892,0.0386,0.7703,-105.9524,-4.7619,30.9,80288.0,,,,,,,
7.79,,,,,,,,,197.095,9.763,-0.34,2.106,0.337,1804.37,-17.34
7.795,0.0444,0.3936,0.0996,-0.3501,-105.3922,-5.042,30.9,80306.0,,,,,,,
7.8,,,,,,,,,197.044,9.783,-0.337,2.016,0.336,1807.58,-17.34
7.805,0.0513,0.3931,0.1021,-2.7311,-106.3725,-5.2521,30.9,80268.0,,,,,,,
7.81,,,,,,,,,196.989,9.801,-0.336,1.925,0.335,1808.88,-17.34
7.815,0.0083,0.3833,0.0161,2.2409,-103.4314,-5.112,30.9,80274.0,,,,,,,
7.82,,,,,,,,,196.928,9.818,-0.337,1.834,0.334,1808.98,-17.34
7.825,0.0513,0.3804,0.105,4.6919,-103.6415,-4.7619,30.9,80245.0,,,,,,,
7.83,,,,,,,,,196.87,9.835,-0.333,1.744,0.332,1812.2,-17.331
7.835,0.041,0.3901,0.0571,-2.1709,-105.2521,-4.972,30.9,80195.0,,,,,,,
7.84,,,,,,,,,196.814,9.85,-0.327,1.655,0.33,1815.01,-17.331
7.845,0.0356,0.3799,0.0894,-2.9412,-104.972,-5.042,30.9,80193.0,,,,,,,
7.85,,,,,,,,,196.756,9.865,-0.328,1.564,0.329,1816.82,-17.331
7.855,0.0327,0.3857,0.0366,1.1204,-102.381,-5.042,30.9,80182.0,,,,,,,
7.86,,,,,,,,,196.697,9.879,-0.328,1.473,0.328,1818.23,-17.275
7.865,0.0405,0.3818,0.1045,1.0504,-102.3109,-4.972,30.9,80161.0,,,,,,,
7.87,,,,,,,,,196.632,9.892,-0.326,1.385,0.326,1818.83,-17.256
7.875,0.0337,0.3833,0.02,-0.8403,-101.6807,-5.042,30.9,80129.0,,,,,,,
7.88,,,,,,,,,196.569,9.905,-0.323,1.296,0.324,1821.14,-17.191
7.885,0.0581,0.3877,0.1089,-4.2017,-100.2801,-5.7423,30.9,80122.0,,,,,,,
7.89,,,,,,,,,196.514,9.916,-0.322,1.207,0.323,1826.17,-17.144
7.895,0.0029,0.3857,0.063,5.6022,-102.6611,-5.3221,30.9,80073.0,,,,,,,
7.9,,,,,,,,,196.453,9.926,-0.324,1.12,0.321,1826.37,-17.144
7.905,0.0527,0.377,0.0552,1.4006,-103.8515,-4.902,31.0,80056.0,,,,,,,
7.91,,,,,,,,,196.389,9.936,-0.317,1.031,0.318,1827.48,-17.144
7.915,0.0225,0.3853,0.043,1.7507,-102.6611,-5.042,30.9,80036.0,,,,,,,
7.92,,,,,,,,,196.324,9.945,-0.314,0.94,0.317,1829.59,-17.144
7.925,0.0713,0.3818,0.0771,-0.07,-102.2409,-5.8824,31.0,80011.0,,,,,,,
7.93,,,,,,,,,196.262,9.953,-0.311,0.851,0.315,1832.81,-17.182
7.935,0.0327,0.3823,0.085,-0.7003,-102.451,-6.3025,30.9,79979.0,,,,,,,
7.94,,,,,,,,,196.196,9.961,-0.309,0.762,0.312,1833.52,-17.144
7.945,0.0093,0.3848,0.0679,-0.8403,-104.2717,-5.1821,30.9,79987.0,,,,,,,
7.95,,,,,,,,,196.137,9.967,-0.308,0.672,0.31,1838.45,-17.144
7.955,0.0518,0.3799,0.0664,4.972,-104.4118,-4.2717,30.9,79954.0,,,,,,,
7.96,,,,,,,,,196.076,9.973,-0.307,0.581,0.308,1840.16,-17.144
7.965,0.0439,0.3696,0.0513,0.7703,-103.2913,-4.6218,30.9,79946.0,,,,,,,
7.97,,,,,,,,,196.015,9.978,-0.3,0.49,0.306,1842.18,-17.144
7.975,0.0566,0.3765,0.0591,-2.591,-101.8207,-6.0924,31.0,79918.0,,,,,,,
7.98,,,,,,,,,195.955,9.982,-0.298,0.399,0.305,1844.7,-17.125
7.985,0.0146,0.3794,0.0752,-3.3613,-101.8207,-6.3725,30.9,79890.0,,,,,,,
7.99,,,,,,,,,195.896,9.986,-0.298,0.31,0.302,1847.12,-17.116
7.995,0.0537,0.3857,0.084,-1.2605,-103.1513,-5.9524,30.9,79914.0,,,,,,,
8.0,,,,,,,,,195.832,9.988,-0.299,0.221,0.299,1847.92,-17.079
8.005,-0.0132,0.3809,0.0596,-1.9608,-105.2521,-4.3417,30.9,79863.0,,,,,,,
8.01,,,,,,,,,195.769,9.99,-0.298,0.131,0.296,1850.44,-17.116
8.015,0.0684,0.3726,0.0859,-2.8011,-102.6611,-3.9216,30.9,79869.0,,,,,,,
8.02,,,,,,,,,195.703,9.991,-0.298,0.038,0.295,1851.25,-17.097
8.025,0.04,0.3682,0.0601,-1.3305,-103.2213,-5.112,31.0,79826.0,,,,,,,
8.03,,,,,,,,,195.638,9.991,-0.298,-0.051,0.294,1854.07,-17.079
8.035,0.0273,0.3755,0.0752,-3.1513,-101.7507,-6.4426,30.9,79806.0,,,,,,,
8.04,,,,,,,,,195.568,9.99,-0.297,-0.141,0.292,1854.48,-17.069
8.045,0.0391,0.3779,0.062,-3.9916,-103.0112,-6.3025,31.0,79777.0,,,,,,,
8.05,,,,,,,,,195.499,9.988,-0.298,-0.23,0.289,1856.9,-17.013
8.055,0.0,0.3677,0.0601,-0.07,-104.902,-5.112,30.9,79755.0,,,,,,,
8.06,,,,,,,,,195.43,9.986,-0.299,-0.321,0.286,1859.02,-17.013
8.065,0.0518,0.3696,0.0679,2.591,-107.0728,-4.0616,30.9,79741.0,,,,,,,
8.07,,,,,,,,,195.356,9.983,-0.297,-0.412,0.284,1859.62,-17.013
8.075,0.0273,0.3613,0.0659,-3.7115,-105.6022,-4.4118,30.9,79727.0,,,,,,,
8.08,,,,,,,,,195.287,9.978,-0.292,-0.506,0.283,1863.36,-16.995
8.085,0.0469,0.3691,0.0806,0.5602,-104.902,-5.2521,31.0,79688.0,,,,,,,
8.09,,,,,,,,,195.218,9.973,-0.293,-0.598,0.281,1865.38,-16.939
8.095,0.0386,0.3716,0.0688,3.1513,-103.2213,-5.7423,31.0,79667.0,,,,,,,
8.1,,,,,,,,,195.151,9.967,-0.29,-0.69,0.279,1868.31,-16.883
8.105,0.0005,0.3647,0.0664,0.2801,-105.1821,-4.972,31.0,79675.0,,,,,,,
8.11,,,,,,,,,195.084,9.961,-0.285,-0.78,0.277,1870.53,-16.883
8.115,0.0508,0.3682,0.0674,-1.4706,-106.0924,-3.9216,31.0,79634.0,,,,,,,
8.12,,,,,,,,,195.015,9.954,-0.283,-0.872,0.275,1871.94,-16.873
8.125,0.0693,0.3613,0.0728,3.0112,-108.1232,-4.2717,30.9,79630.0,,,,,,,
8.13,,,,,,,,,194.944,9.945,-0.282,-0.964,0.273,1873.36,-16.873
8.135,0.0083,0.3643,0.0752,2.7311,-107.2129,-4.8319,30.9,79601.0,,,,,,,
8.14,,,,,,,,,194.878,9.936,-0.277,-1.058,0.272,1877.3,-16.855
8.145,0.0288,0.3623,0.0562,-2.0308,-107.1429,-4.6919,30.9,79569.0,,,,,,,
8.15,,,,,,,,,194.809,9.925,-0.272,-1.152,0.271,1878.62,-16.845
8.155,0.0332,0.3618,0.0747,-5.2521,-107.7031,-4.0616,31.0,79559.0,,,,,,,
8.16,,,,,,,,,194.737,9.914,-0.271,-1.245,0.269,1879.42,-16.789
8.165,0.04,0.3564,0.0645,-0.6303,-108.4034,-4.2017,30.9,79552.0,,,,,,,
8.17,,,,,,,,,194.668,9.902,-0.273,-1.338,0.267,1882.76,-16.78
8.175,0.0439,0.3496,0.0664,6.3725,-106.6527,-5.042,31.0,79521.0,,,,,,,
8.18,,,,,,,,,194.594,9.889,-0.271,-1.432,0.265,1883.17,-16.78
8.185,0.0283,0.356,0.0737,4.2017,-106.6527,-5.2521,30.9,79524.0,,,,,,,
8.19,,,,,,,,,194.523,9.875,-0.263,-1.525,0.264,1886.1,-16.742
8.195,0.0308,0.3618,0.0527,-0.3501,-106.7927,-4.8319,30.9,79492.0,,,,,,,
8.2,,,,,,,,,194.454,9.861,-0.257,-1.617,0.262,1889.34,-16.733
8.205,0.0181,0.3511,0.0581,-0.9804,-104.8319,-4.5518,31.0,79469.0,,,,,,,
8.21,,,,,,,,,194.383,9.846,-0.255,-1.709,0.26,1890.35,-16.733
8.215,0.0537,0.3545,0.0581,0.4902,-105.6723,-4.3417,31.0,79444.0,,,,,,,
8.22,,,,,,,,,194.307,9.83,-0.253,-1.799,0.258,1891.06,-16.724
8.225,0.0283,0.355,0.0869,2.2409,-105.112,-4.6919,30.9,79377.0,,,,,,,
8.23,,,,,,,,,194.234,9.813,-0.25,-1.89,0.256,1893.9,-16.63
8.235,0.0356,0.3574,0.021,3.6415,-103.7815,-5.042,31.0,79405.0,,,,,,,
8.24,,,,,,,,,194.155,9.795,-0.245,-1.981,0.255,1894.2,-16.621
8.245,0.0488,0.356,0.0889,0.0,-101.5406,-5.7423,31.0,79380.0,,,,,,,
8.25,,,,,,,,,194.079,9.777,-0.24,-2.069,0.253,1897.14,-16.621
