ts,Ax,Ay,Az,Gx,Gy,Gz,T,P,velocity,q0_estimated,q1_estimated,q2_estimated,q3_estimated,filtered_altitude_AGL,filtered_acceleration
-0.75,,,,,,,,,-0.034,,,,,-0.28,0.047
-0.745,0.0137,-0.5073,0.0493,0.2101,-0.1401,-0.2801,31.2,100069.0,,,,,,,
-0.74,,,,,,,,,-0.038,8.188,5.647,-0.867,0.547,-0.2,0.038
-0.735,0.0127,-0.5068,0.0493,0.2101,-0.1401,-0.2801,31.2,100092.0,,,,,,,
-0.73,,,,,,,,,-0.038,8.188,5.647,-0.867,0.547,-0.03,0.038
-0.725,0.0112,-0.5063,0.0498,0.2101,-0.1401,-0.2801,31.2,100085.0,,,,,,,
-0.72,,,,,,,,,-0.042,8.188,5.647,-0.867,0.547,-0.2,0.038
-0.715,0.0137,-0.5078,0.0513,0.2101,-0.2101,-0.2801,31.2,100089.0,,,,,,,
-0.71,,,,,,,,,-0.045,8.189,5.646,-0.867,0.547,-0.2,0.038
-0.705,0.0122,-0.5068,0.0503,0.2101,-0.2101,-0.2801,31.2,100091.0,,,,,,,
-0.7,,,,,,,,,-0.047,8.189,5.646,-0.867,0.547,-0.11,0.038
-0.695,0.0122,-0.5078,0.0513,0.2101,-0.2801,-0.2801,31.2,100097.0,,,,,,,
-0.69,,,,,,,,,-0.049,8.189,5.645,-0.867,0.547,-0.11,0.038
-0.685,0.0137,-0.5083,0.0522,0.1401,-0.2101,-0.2801,31.2,100078.0,,,,,,,
-0.68,,,,,,,,,-0.052,8.19,5.645,-0.867,0.547,-0.2,0.038
-0.675,0.0132,-0.5073,0.0518,0.1401,-0.07,-0.2801,31.2,100083.0,,,,,,,
-0.67,,,,,,,,,-0.054,8.19,5.644,-0.867,0.547,-0.11,0.047
-0.665,0.0137,-0.5054,0.0488,0.1401,0.0,-0.2801,31.2,100092.0,,,,,,,
-0.66,,,,,,,,,-0.052,8.191,5.643,-0.867,0.547,0.06,0.047
-0.655,0.0127,-0.5073,0.0488,0.2101,0.0,-0.2801,31.2,100073.0,,,,,,,
-0.65,,,,,,,,,-0.053,8.191,5.643,-0.867,0.547,-0.11,0.047
-0.645,0.0127,-0.5073,0.0498,0.1401,0.0,-0.2801,31.2,100081.0,,,,,,,
-0.64,,,,,,,,,-0.054,8.191,5.642,-0.866,0.547,-0.11,0.047
-0.635,0.0137,-0.5068,0.0474,0.2101,0.0,-0.2801,31.2,100093.0,,,,,,,
-0.63,,,,,,,,,-0.049,8.192,5.642,-0.866,0.547,0.22,0.047
-0.625,0.0132,-0.5068,0.0503,0.2801,-0.07,-0.3501,31.2,100078.0,,,,,,,
-0.62,,,,,,,,,-0.05,8.192,5.641,-0.866,0.547,-0.11,0.047
-0.615,0.0122,-0.5088,0.0503,0.1401,-0.2101,-0.3501,31.2,100108.0,,,,,,,
-0.61,,,,,,,,,-0.041,8.192,5.641,-0.866,0.547,0.39,0.047
-0.605,0.0137,-0.5068,0.0513,0.1401,-0.2101,-0.3501,31.2,100083.0,,,,,,,
-0.6,,,,,,,,,-0.032,8.193,5.64,-0.866,0.547,0.39,0.047
-0.595,0.0132,-0.5073,0.0513,0.1401,-0.1401,-0.2801,31.2,100081.0,,,,,,,
-0.59,,,,,,,,,-0.023,8.193,5.64,-0.866,0.547,0.39,0.047
-0.585,0.0117,-0.5073,0.0508,0.1401,-0.07,-0.3501,31.2,100094.0,,,,,,,
-0.58,,,,,,,,,-0.014,8.194,5.639,-0.866,0.547,0.39,0.047
-0.575,0.0146,-0.5088,0.0498,0.1401,-0.1401,-0.3501,31.2,100094.0,,,,,,,
-0.57,,,,,,,,,-0.006,8.194,5.639,-0.866,0.547,0.39,0.047
-0.565,0.0137,-0.5078,0.0498,0.2101,-0.07,-0.3501,31.2,100096.0,,,,,,,
-0.56,,,,,,,,,0.003,8.194,5.638,-0.866,0.546,0.39,0.047
-0.555,0.0137,-0.5073,0.0498,0.2101,-0.07,-0.3501,31.2,100079.0,,,,,,,
-0.55,,,,,,,,,-0.007,8.195,5.638,-0.866,0.546,-0.45,0.047
-0.545,0.0122,-0.5059,0.0493,0.2101,-0.07,-0.3501,31.2,100083.0,,,,,,,
-0.54,,,,,,,,,-0.017,8.195,5.637,-0.865,0.546,-0.45,0.047
-0.535,0.0132,-0.5073,0.0498,0.1401,-0.1401,-0.3501,31.2,100091.0,,,,,,,
-0.53,,,,,,,,,-0.008,8.195,5.637,-0.865,0.546,0.39,0.047
-0.525,0.0127,-0.5088,0.0508,0.2101,-0.1401,-0.3501,31.2,100102.0,,,,,,,
-0.52,,,,,,,,,-0.014,8.196,5.636,-0.865,0.546,-0.28,0.047
-0.515,0.0137,-0.5068,0.0503,0.2101,-0.1401,-0.3501,31.2,100102.0,,,,,,,
-0.51,,,,,,,,,-0.02,8.196,5.636,-0.865,0.546,-0.28,0.047
-0.505,0.0127,-0.5073,0.0498,0.2101,-0.1401,-0.3501,31.2,100088.0,,,,,,,
-0.5,,,,,,,,,-0.031,8.196,5.635,-0.865,0.546,-0.53,0.047
-0.495,0.0122,-0.5146,0.0513,0.1401,-0.1401,-0.3501,31.2,100103.0,,,,,,,
-0.49,,,,,,,,,-0.041,8.197,5.635,-0.865,0.546,-0.53,0.047
-0.485,0.0146,-0.5,0.0498,0.2101,-0.07,-0.3501,31.2,100079.0,,,,,,,
-0.48,,,,,,,,,-0.052,8.197,5.634,-0.865,0.546,-0.53,0.047
-0.475,0.0112,-0.5078,0.0542,0.07,-0.07,-0.3501,31.2,100094.0,,,,,,,
-0.47,,,,,,,,,-0.057,8.198,5.634,-0.865,0.546,-0.28,0.047
-0.465,0.0142,-0.5078,0.0503,0.1401,0.07,-0.3501,31.2,100074.0,,,,,,,
-0.46,,,,,,,,,-0.061,8.198,5.633,-0.865,0.546,-0.28,0.047
-0.455,0.0127,-0.5073,0.0513,0.1401,0.07,-0.3501,31.2,100094.0,,,,,,,
-0.45,,,,,,,,,-0.066,8.198,5.633,-0.865,0.546,-0.28,0.047
-0.445,0.0146,-0.5068,0.0474,0.1401,0.0,-0.3501,31.2,100088.0,,,,,,,
-0.44,,,,,,,,,-0.076,8.199,5.632,-0.864,0.546,-0.53,0.047
-0.435,0.0151,-0.5073,0.0493,0.1401,-0.07,-0.3501,31.2,100079.0,,,,,,,
-0.43,,,,,,,,,-0.086,8.199,5.632,-0.864,0.546,-0.53,0.047
-0.425,0.0132,-0.5068,0.0479,0.1401,-0.1401,-0.3501,31.2,100066.0,,,,,,,
-0.42,,,,,,,,,-0.084,8.2,5.631,-0.864,0.546,-0.02,0.047
-0.415,0.0132,-0.5073,0.0508,0.1401,-0.2101,-0.3501,31.2,100087.0,,,,,,,
-0.41,,,,,,,,,-0.083,8.2,5.63,-0.864,0.545,-0.02,0.047
-0.405,0.0132,-0.5044,0.0508,0.2801,-0.2101,-0.3501,31.2,100094.0,,,,,,,
-0.4,,,,,,,,,-0.08,8.2,5.63,-0.864,0.545,0.05,0.047
-0.395,0.0151,-0.5049,0.0518,0.2801,-0.2101,-0.3501,31.2,100078.0,,,,,,,
-0.39,,,,,,,,,-0.077,8.201,5.629,-0.864,0.545,0.05,0.047
-0.385,0.0137,-0.5068,0.0488,0.1401,-0.2101,-0.3501,31.2,100084.0,,,,,,,
-0.38,,,,,,,,,-0.074,8.201,5.629,-0.864,0.545,0.05,0.047
-0.375,0.0127,-0.5068,0.0493,0.1401,-0.07,-0.3501,31.2,100098.0,,,,,,,
-0.37,,,,,,,,,-0.066,8.201,5.629,-0.864,0.545,0.31,0.038
-0.365,0.0132,-0.5054,0.0503,0.1401,0.07,-0.2801,31.2,100076.0,,,,,,,
-0.36,,,,,,,,,-0.064,8.202,5.628,-0.864,0.545,0.05,0.038
-0.355,0.0127,-0.5073,0.0493,0.1401,0.0,-0.3501,31.2,100085.0,,,,,,,
-0.35,,,,,,,,,-0.056,8.202,5.627,-0.864,0.545,0.31,0.038
-0.345,0.0142,-0.5068,0.0498,0.2101,0.07,-0.3501,31.2,100070.0,,,,,,,
-0.34,,,,,,,,,-0.048,8.202,5.627,-0.863,0.545,0.31,0.038
-0.335,0.0127,-0.5093,0.0459,0.1401,-0.1401,-0.4202,31.2,100082.0,,,,,,,
-0.33,,,,,,,,,-0.04,8.203,5.626,-0.863,0.545,0.31,0.038
-0.325,0.0112,-0.5073,0.0488,0.1401,-0.3501,-0.3501,31.2,100093.0,,,,,,,
-0.32,,,,,,,,,-0.033,8.203,5.626,-0.863,0.545,0.31,0.038
-0.315,0.0142,-0.5078,0.0498,0.1401,-0.3501,-0.3501,31.2,100079.0,,,,,,,
-0.31,,,,,,,,,-0.026,8.204,5.625,-0.863,0.545,0.31,0.038
-0.305,0.0142,-0.5059,0.0522,0.2101,-0.2801,-0.4202,31.2,100082.0,,,,,,,
-0.3,,,,,,,,,-0.015,8.204,5.625,-0.863,0.544,0.47,0.038
-0.295,0.0137,-0.5083,0.0513,0.2101,-0.1401,-0.3501,31.2,100086.0,,,,,,,
-0.29,,,,,,,,,-0.005,8.204,5.624,-0.863,0.544,0.47,0.038
-0.285,0.0151,-0.5073,0.0508,0.1401,-0.1401,-0.2801,31.2,100083.0,,,,,,,
-0.28,,,,,,,,,0.006,8.205,5.624,-0.863,0.544,0.47,0.047
-0.275,0.0103,-0.5093,0.0483,0.1401,0.1401,-0.2801,31.2,100092.0,,,,,,,
-0.27,,,,,,,,,0.016,8.205,5.623,-0.863,0.544,0.47,0.047
-0.265,0.0137,-0.5059,0.0503,0.2101,0.2101,-0.2801,31.2,100079.0,,,,,,,
-0.26,,,,,,,,,0.024,8.205,5.623,-0.863,0.544,0.38,0.047
-0.255,0.0132,-0.5073,0.0488,0.2801,0.1401,-0.2801,31.2,100075.0,,,,,,,
-0.25,,,,,,,,,0.033,8.206,5.622,-0.863,0.544,0.47,0.047
-0.245,0.0127,-0.5059,0.0508,0.2101,-0.2101,-0.3501,31.2,100099.0,,,,,,,
-0.24,,,,,,,,,0.043,8.206,5.622,-0.862,0.544,0.47,0.047
-0.235,0.0132,-0.5073,0.0508,0.2801,-0.3501,-0.3501,31.2,100090.0,,,,,,,
-0.23,,,,,,,,,0.05,8.206,5.621,-0.862,0.544,0.38,0.047
-0.225,0.0161,-0.5054,0.0498,0.2101,-0.4202,-0.4202,31.2,100083.0,,,,,,,
-0.22,,,,,,,,,0.057,8.207,5.621,-0.862,0.544,0.38,0.047
-0.215,0.0122,-0.5073,0.0508,0.2101,-0.3501,-0.4202,31.2,100077.0,,,,,,,
-0.21,,,,,,,,,0.065,8.207,5.62,-0.862,0.544,0.38,0.047
-0.205,0.0156,-0.5083,0.0503,0.2101,-0.2101,-0.3501,31.2,100098.0,,,,,,,
-0.2,,,,,,,,,0.072,8.207,5.62,-0.863,0.543,0.38,0.047
-0.195,0.0117,-0.5088,0.0503,0.1401,-0.07,-0.3501,31.2,100102.0,,,,,,,
-0.19,,,,,,,,,0.078,8.208,5.619,-0.862,0.543,0.38,0.047
-0.185,0.0137,-0.5063,0.0513,0.2101,0.07,-0.2801,31.2,100084.0,,,,,,,
-0.18,,,,,,,,,0.073,8.208,5.619,-0.862,0.543,-0.21,0.047
-0.175,0.0142,-0.5078,0.0483,0.1401,0.07,-0.2801,31.2,100096.0,,,,,,,
-0.17,,,,,,,,,0.078,8.209,5.618,-0.862,0.543,0.3,0.047
-0.165,0.0132,-0.5068,0.0513,0.2101,0.0,-0.2801,31.2,100093.0,,,,,,,
-0.16,,,,,,,,,0.072,8.209,5.618,-0.862,0.543,-0.21,0.047
-0.155,0.0117,-0.5068,0.0513,0.2101,-0.2101,-0.2801,31.2,100091.0,,,,,,,
-0.15,,,,,,,,,0.061,8.209,5.617,-0.862,0.543,-0.45,0.047
-0.145,0.0156,-0.5093,0.0498,0.2801,-0.2101,-0.3501,31.2,100089.0,,,,,,,
-0.14,,,,,,,,,0.053,8.21,5.617,-0.862,0.543,-0.29,0.047
-0.135,0.0127,-0.5103,0.0503,0.2101,-0.3501,-0.3501,31.2,100091.0,,,,,,,
-0.13,,,,,,,,,0.046,8.21,5.616,-0.862,0.543,-0.29,0.047
-0.125,0.0142,-0.5469,0.0454,0.2101,-0.9104,-0.4202,31.2,100088.0,,,,,,,
-0.12,,,,,,,,,0.04,8.21,5.616,-0.862,0.543,-0.29,0.057
-0.115,-0.0259,-1.5825,0.1147,0.0,1.2605,-0.07,31.2,100076.0,,,,,,,
-0.11,,,,,,,,,0.033,8.211,5.616,-0.862,0.542,-0.29,0.066
-0.105,0.4565,-4.9409,0.0254,-3.7115,4.2017,-0.7003,31.2,100224.0,,,,,,,
-0.1,,,,,,,,,0.026,8.211,5.615,-0.861,0.543,-0.29,0.076
-0.095,-0.7734,-8.8721,0.4048,-15.1961,3.9916,-3.5014,31.2,100235.0,,,,,,,
-0.09,,,,,,,,,0.02,8.214,5.611,-0.858,0.545,-0.29,0.085
-0.085,0.4253,-9.8359,-0.2178,-0.5602,3.4314,-5.9524,31.2,100154.0,,,,,,,
-0.08,,,,,,,,,0.014,8.222,5.6,-0.854,0.543,-0.29,0.104
-0.075,0.1084,-9.3008,-0.124,-5.112,5.5322,4.4118,31.2,100105.0,,,,,,,
-0.07,,,,,,,,,0.016,8.223,5.599,-0.849,0.541,-0.29,0.816
-0.065,0.085,-9.4336,-0.0713,-7.2829,7.3529,-3.6415,31.2,100088.0,,,,,,,
-0.06,,,,,,,,,0.219,8.226,5.594,-0.847,0.547,-0.29,20.939
-0.055,0.021,-9.3887,-0.1895,-11.7647,23.1793,-3.3613,31.2,100097.0,,,,,,,
-0.05,,,,,,,,,1.074,8.231,5.588,-0.841,0.547,-0.29,86.193
-0.045,0.0713,-9.395,-0.2383,-3.0112,21.7787,3.0112,31.2,100132.0,,,,,,,
-0.04,,,,,,,,,2.683,8.239,5.578,-0.823,0.555,-0.73,162.577
-0.035,0.1426,-9.5283,-0.3057,-8.1232,29.6919,3.0812,31.2,100093.0,,,,,,,
-0.03,,,,,,,,,4.361,8.242,5.574,-0.809,0.568,-1.4,170.907
-0.025,0.0288,-9.6523,-0.1538,6.2325,30.6022,1.4706,31.2,100107.0,,,,,,,
-0.02,,,,,,,,,6.056,8.249,5.566,-0.79,0.584,-1.4,172.614
-0.015,0.0229,-9.8398,-0.209,1.8207,37.3249,2.1008,31.2,100109.0,,,,,,,
-0.01,,,,,,,,,7.748,8.248,5.568,-0.768,0.601,-1.56,172.738
-0.005,0.001,-9.9307,-0.1406,12.9552,43.6975,4.2017,31.2,100128.0,,,,,,,
0.0,,,,,,,,,9.446,8.25,5.566,-0.742,0.621,-1.56,173.487
0.005,-0.0068,-9.9561,-0.1714,5.5322,32.493,2.8711,31.2,100107.0,,,,,,,
0.01,,,,,,,,,11.199,9.999,0.01,0.038,0.003,-1.56,175.328
0.015,-0.0654,-10.0249,0.1235,1.5406,24.0896,-0.7003,31.2,100128.0,,,,,,,
0.02,,,,,,,,,12.951,9.999,0.014,0.066,0.006,-1.55,175.328
0.025,-0.042,-10.0977,0.1035,4.1317,17.9972,-2.591,31.2,100076.0,,,,,,,
0.03,,,,,,,,,14.728,9.999,0.015,0.088,0.006,-1.56,177.737
0.035,0.0674,-10.21,0.3369,1.1204,-19.6078,-7.6331,31.2,100060.0,,,,,,,
0.04,,,,,,,,,16.542,9.999,0.017,0.103,0.004,-1.56,181.381
0.045,0.0483,-10.3555,0.3149,1.1905,-41.2465,-9.5938,31.2,100085.0,,,,,,,
0.05,,,,,,,,,18.373,9.999,0.018,0.087,-0.002,-1.56,183.145
0.055,0.1045,-10.5615,0.4082,-7.1429,-50.9104,-8.0532,31.2,100096.0,,,,,,,
0.06,,,,,,,,,20.208,9.999,0.018,0.051,-0.01,-1.55,183.639
0.065,0.1748,-10.6626,0.3457,-16.3866,-72.8291,-10.084,31.2,100095.0,,,,,,,
0.07,,,,,,,,,22.058,9.999,0.011,0.007,-0.017,-1.55,184.976
0.075,0.1133,-10.792,-0.23,-23.5994,-81.1625,-9.5238,31.2,100065.0,,,,,,,
0.08,,,,,,,,,23.921,9.999,-0.004,-0.056,-0.026,-0.62,186.39
0.085,0.0786,-10.6548,-1.6743,-18.1373,-75.4902,-7.1429,31.2,100051.0,,,,,,,
0.09,,,,,,,,,25.806,9.999,-0.025,-0.126,-0.034,-0.54,188.572
0.095,0.2939,-10.8252,-0.3569,8.1232,-52.521,-8.2633,31.2,100094.0,,,,,,,
0.1,,,,,,,,,27.72,9.997,-0.042,-0.192,-0.04,0.3,191.399
0.105,-0.0103,-10.9355,-0.1782,12.7451,-32.423,-0.5602,31.2,100107.0,,,,,,,
0.11,,,,,,,,,29.673,9.996,-0.036,-0.238,-0.046,0.3,195.403
0.115,0.3345,-11.0044,0.0371,18.5574,1.1204,5.5322,31.2,100070.0,,,,,,,
0.12,,,,,,,,,31.645,9.996,-0.025,-0.266,-0.046,0.3,197.215
0.125,-0.0972,-10.9326,0.1987,6.3025,19.1176,6.7227,31.2,100065.0,,,,,,,
0.13,,,,,,,,,33.618,9.996,-0.01,-0.265,-0.041,0.3,197.367
0.135,-0.2134,-10.9194,0.936,14.2157,15.1961,8.8235,31.2,100082.0,,,,,,,
0.14,,,,,,,,,35.616,9.996,-0.005,-0.248,-0.035,0.3,199.881
0.145,-0.4214,-10.8223,0.3794,-2.521,19.3978,10.2241,31.2,100023.0,,,,,,,
0.15,,,,,,,,,37.621,9.997,0.005,-0.234,-0.027,0.56,200.526
0.155,-0.0391,-10.791,0.4062,-15.3361,-53.2913,-2.8011,31.2,100041.0,,,,,,,
0.16,,,,,,,,,39.626,9.997,0.002,-0.217,-0.018,1.56,200.526
0.165,-0.3936,-10.813,0.1348,-30.6022,-33.8235,-17.0868,31.2,100047.0,,,,,,,
0.17,,,,,,,,,41.631,9.996,-0.011,-0.264,-0.02,1.99,200.526
0.175,0.0977,-10.7163,-0.9888,-26.2605,-0.7703,-10.9944,31.2,100031.0,,,,,,,
0.18,,,,,,,,,43.635,9.995,-0.038,-0.293,-0.035,1.99,200.526
0.185,0.4917,-10.6113,-1.1025,-5.6723,12.605,-6.4426,31.2,100013.0,,,,,,,
0.19,,,,,,,,,45.64,9.995,-0.062,-0.293,-0.046,1.99,200.526
0.195,0.2622,-10.728,0.0605,6.3725,118.6275,-4.2017,31.2,100047.0,,,,,,,
0.2,,,,,,,,,47.644,9.995,-0.067,-0.282,-0.051,3.5,200.469
0.205,0.5693,-10.769,-0.1113,14.1457,180.7423,7.563,31.2,99992.0,,,,,,,
0.21,,,,,,,,,49.647,9.998,-0.062,-0.178,-0.055,3.5,200.289
0.215,0.436,-10.646,0.2725,13.7955,251.1204,23.6695,31.2,100003.0,,,,,,,
0.22,,,,,,,,,51.645,9.999,-0.05,-0.021,-0.049,4.0,199.862
0.225,0.3691,-10.499,0.5762,9.5938,230.3922,25.5602,31.2,100008.0,,,,,,,
0.23,,,,,,,,,53.638,9.997,-0.037,0.198,-0.029,4.84,199.435
0.235,0.1011,-10.3599,0.8247,-2.451,189.0756,18.5574,31.2,100009.0,,,,,,,
0.24,,,,,,,,,55.624,9.991,-0.029,0.399,-0.008,5.52,198.638
0.245,0.27,-10.3604,-0.7412,-31.5126,166.5266,10.9944,31.2,100006.0,,,,,,,
0.25,,,,,,,,,57.608,9.984,-0.031,0.564,0.007,6.36,198.411
0.255,-0.0801,-10.7124,0.2188,-26.3305,131.9328,11.0644,31.2,100016.0,,,,,,,
0.26,,,,,,,,,59.578,9.974,-0.059,0.709,0.018,6.69,197.044
0.265,0.1831,-10.667,0.1714,3.2913,122.8992,10.5042,31.2,100002.0,,,,,,,
0.27,,,,,,,,,61.547,9.965,-0.082,0.824,0.029,6.69,197.044
0.275,0.0986,-10.6636,-0.4888,11.6947,122.0588,8.1933,31.2,99984.0,,,,,,,
0.28,,,,,,,,,63.517,9.956,-0.079,0.931,0.037,6.78,197.044
0.285,0.1582,-10.6699,-0.3086,-9.944,115.056,4.4118,31.2,99989.0,,,,,,,
0.29,,,,,,,,,65.49,9.945,-0.07,1.037,0.043,6.94,197.386
0.295,0.0825,-10.6621,0.0664,-21.4986,110.1541,12.0448,31.2,99978.0,,,,,,,
0.3,,,,,,,,,67.464,9.934,-0.079,1.137,0.047,7.2,197.386
0.305,0.0898,-10.625,0.0151,-5.042,108.1232,18.8375,31.2,99971.0,,,,,,,
0.31,,,,,,,,,69.436,9.923,-0.098,1.232,0.059,7.2,197.357
0.315,0.145,-10.6348,-0.2627,1.0504,106.6527,10.5742,31.2,99972.0,,,,,,,
0.32,,,,,,,,,71.409,9.91,-0.101,1.326,0.075,7.28,197.357
0.325,0.0884,-10.5806,0.0029,-16.7367,97.7591,15.1261,31.2,99956.0,,,,,,,
0.33,,,,,,,,,73.382,9.897,-0.101,1.419,0.084,8.38,197.357
0.335,0.1089,-10.541,-0.1362,-9.1737,93.8375,22.409,31.2,99935.0,,,,,,,
0.34,,,,,,,,,75.355,9.885,-0.115,1.503,0.098,8.8,197.357
0.345,0.1597,-10.5801,-0.1729,-9.6639,91.2465,12.3249,31.2,99957.0,,,,,,,
0.35,,,,,,,,,77.327,9.872,-0.121,1.584,0.118,9.3,197.357
0.355,0.0845,-10.5913,-0.0698,-15.4062,87.465,7.1429,31.2,99946.0,,,,,,,
0.36,,,,,,,,,79.295,9.858,-0.13,1.663,0.13,9.81,196.826
0.365,0.0825,-10.5923,-0.0801,-15.8263,83.4034,17.0868,31.2,99946.0,,,,,,,
0.37,,,,,,,,,81.26,9.845,-0.143,1.738,0.137,9.89,196.636
0.375,0.1621,-10.5786,-0.1504,-14.2857,79.5518,22.409,31.2,99935.0,,,,,,,
0.38,,,,,,,,,83.219,9.832,-0.156,1.81,0.154,11.07,196.001
0.385,0.1558,-10.6104,-0.1025,-18.4874,76.8207,13.7955,31.2,99911.0,,,,,,,
0.39,,,,,,,,,85.178,9.818,-0.167,1.879,0.174,11.15,195.982
0.395,0.0698,-10.6445,-0.0649,-17.1569,72.8992,11.1345,31.2,99923.0,,,,,,,
0.4,,,,,,,,,87.137,9.805,-0.182,1.945,0.189,11.99,195.982
0.405,0.1177,-10.6641,-0.1133,-13.7255,68.6275,19.4678,31.2,99912.0,,,,,,,
0.41,,,,,,,,,89.095,9.792,-0.197,2.007,0.2,11.99,195.982
0.415,0.1553,-10.668,-0.1196,-18.3473,65.6863,21.0784,31.2,99900.0,,,,,,,
0.42,,,,,,,,,91.054,9.779,-0.207,2.066,0.218,12.92,195.982
0.425,0.123,-10.6953,-0.0601,-21.2185,62.9552,13.8655,31.2,99887.0,,,,,,,
0.43,,,,,,,,,93.013,9.766,-0.221,2.122,0.239,12.92,196.001
0.435,0.0884,-10.7432,-0.0806,-14.7759,59.0336,13.6555,31.2,99901.0,,,,,,,
0.44,,,,,,,,,94.975,9.754,-0.239,2.176,0.254,13.93,196.352
0.445,0.1338,-10.7739,-0.1182,-17.1569,56.3725,18.8375,31.2,99888.0,,,,,,,
0.45,,,,,,,,,96.944,9.742,-0.251,2.226,0.267,14.86,197.016
0.455,0.145,-10.7812,-0.082,-21.7787,52.1709,17.437,31.2,99894.0,,,,,,,
0.46,,,,,,,,,98.916,9.73,-0.263,2.274,0.286,14.94,197.395
0.465,0.1074,-10.8066,-0.0361,-18.8375,49.2997,12.3249,31.2,99864.0,,,,,,,
0.47,,,,,,,,,100.889,9.718,-0.281,2.318,0.304,15.78,197.471
0.475,0.1167,-10.8564,-0.0815,-13.5154,46.4986,13.5154,31.2,99870.0,,,,,,,
0.48,,,,,,,,,102.868,9.707,-0.296,2.36,0.317,15.87,198.003
0.485,0.147,-10.8613,-0.105,-17.0868,42.8571,15.8263,31.2,99852.0,,,,,,,
0.49,,,,,,,,,104.855,9.697,-0.307,2.399,0.331,16.37,198.932
0.495,0.147,-10.8867,-0.0342,-18.2073,38.6555,13.0252,31.2,99876.0,,,,,,,
0.5,,,,,,,,,106.849,9.687,-0.32,2.436,0.347,16.88,199.53
0.505,0.1226,-10.9478,-0.0342,-16.1064,36.7647,10.2941,31.2,99831.0,,,,,,,
0.51,,,,,,,,,108.843,9.677,-0.334,2.468,0.361,16.96,199.672
0.515,0.1401,-10.9824,-0.0854,-12.7451,33.1232,11.4146,31.2,99847.0,,,,,,,
0.52,,,,,,,,,110.843,9.669,-0.348,2.499,0.373,17.89,200.166
0.525,0.1489,-11.0098,-0.0522,-14.2857,27.9412,11.3445,31.2,99826.0,,,,,,,
0.53,,,,,,,,,112.852,9.66,-0.358,2.527,0.384,18.39,201.133
0.535,0.1333,-11.0605,-0.0083,-13.9356,24.0896,8.1933,31.2,99838.0,,,,,,,
0.54,,,,,,,,,114.862,9.653,-0.369,2.551,0.397,18.9,201.228
0.545,0.1362,-11.1226,-0.0303,-10.5042,21.2185,6.5826,31.2,99828.0,,,,,,,
0.55,,,,,,,,,116.876,9.647,-0.38,2.571,0.406,19.91,201.722
0.555,0.1621,-11.1758,-0.0679,-9.7339,17.1569,6.8627,31.2,99833.0,,,,,,,
0.56,,,,,,,,,118.903,9.642,-0.389,2.589,0.414,20.33,202.908
0.565,0.1445,-11.2217,-0.0215,-10.5742,11.5546,5.6723,31.2,99806.0,,,,,,,
0.57,,,,,,,,,120.936,9.637,-0.397,2.603,0.422,21.09,203.581
0.575,0.1475,-11.2593,0.0005,-7.1429,7.563,3.1513,31.2,99824.0,,,,,,,
0.58,,,,,,,,,122.974,9.634,-0.406,2.613,0.429,21.51,204.113
0.585,0.1548,-11.3149,-0.0557,-2.7311,2.381,1.7507,31.2,99815.0,,,,,,,
0.59,,,,,,,,,125.022,9.632,-0.412,2.619,0.433,21.68,205.099
0.595,0.1436,-11.3633,-0.0483,-3.6415,-2.1709,0.5602,31.2,99780.0,,,,,,,
0.6,,,,,,,,,127.082,9.631,-0.415,2.622,0.436,21.93,206.304
0.605,0.1392,-11.4121,-0.0044,-5.042,-5.3221,-1.4706,31.2,99791.0,,,,,,,
0.61,,,,,,,,,129.151,9.631,-0.418,2.62,0.437,22.1,207.338
0.615,0.147,-11.4565,-0.0073,-2.381,-7.7731,-3.5714,31.2,99784.0,,,,,,,
0.62,,,,,,,,,131.23,9.632,-0.423,2.615,0.438,22.27,208.23
0.625,0.1538,-11.4976,-0.0498,3.7115,-14.0056,-4.902,31.2,99773.0,,,,,,,
0.63,,,,,,,,,133.315,9.634,-0.427,2.609,0.436,23.03,208.961
0.635,0.1514,-11.5146,-0.0273,3.3613,-18.2073,-5.6022,31.2,99775.0,,,,,,,
0.64,,,,,,,,,135.411,9.637,-0.425,2.597,0.432,23.78,210.042
0.645,0.1318,-11.5059,0.0059,1.1204,-20.7983,-6.9328,31.2,99794.0,,,,,,,
0.65,,,,,,,,,137.516,9.642,-0.423,2.582,0.428,25.05,210.981
0.655,0.1562,-11.5449,-0.0347,5.8123,-25.1401,-8.7535,31.2,99776.0,,,,,,,
0.66,,,,,,,,,139.631,9.646,-0.424,2.564,0.423,25.05,211.93
0.665,0.1519,-11.5508,-0.0425,7.423,-29.972,-9.5938,31.2,99790.0,,,,,,,
0.67,,,,,,,,,141.754,9.652,-0.421,2.543,0.416,25.64,212.794
0.675,0.1401,-11.5366,-0.0171,9.1036,-35.2941,-9.944,31.2,99791.0,,,,,,,
0.68,,,,,,,,,143.884,9.66,-0.416,2.518,0.407,25.64,213.59
0.685,0.1489,-11.5327,-0.0146,6.6527,-37.6751,-10.7843,31.2,99749.0,,,,,,,
0.69,,,,,,,,,146.016,9.668,-0.41,2.488,0.399,25.64,213.752
0.695,0.146,-11.5308,-0.0508,14.4958,-44.958,-12.3249,31.2,99707.0,,,,,,,
0.7,,,,,,,,,148.148,9.677,-0.406,2.456,0.39,25.64,213.923
0.705,0.1602,-11.5039,-0.0464,11.1345,-49.2997,-12.8852,31.2,99737.0,,,,,,,
0.71,,,,,,,,,150.284,9.687,-0.396,2.419,0.378,26.31,214.236
0.715,0.1396,-11.4663,-0.0278,14.0756,-53.1513,-12.605,31.2,99719.0,,,,,,,
0.72,,,,,,,,,152.419,9.698,-0.388,2.377,0.367,26.4,214.236
0.725,0.1509,-11.4648,-0.042,18.3473,-58.2633,-13.5854,31.2,99690.0,,,,,,,
0.73,,,,,,,,,154.554,9.71,-0.378,2.332,0.356,26.4,214.236
0.735,0.1597,-11.4326,-0.0693,11.9048,-59.8039,-14.8459,31.2,99704.0,,,,,,,
0.74,,,,,,,,,156.689,9.722,-0.364,2.283,0.343,28.59,214.236
0.745,0.1577,-11.4131,-0.0386,13.5854,-65.7563,-14.2857,31.2,99693.0,,,,,,,
0.75,,,,,,,,,158.823,9.735,-0.356,2.232,0.33,29.6,214.236
0.755,0.1406,-11.3774,-0.0308,9.8039,-68.4874,-13.7255,31.2,99681.0,,,,,,,
0.76,,,,,,,,,160.952,9.748,-0.346,2.177,0.318,31.12,213.714
0.765,0.166,-11.356,-0.0859,19.3277,-75.5602,-14.986,31.2,99671.0,,,,,,,
0.77,,,,,,,,,163.073,9.762,-0.339,2.118,0.307,32.13,212.983
0.775,0.1304,-11.335,-0.0576,20.8683,-80.8123,-16.0364,31.2,99665.0,,,,,,,
0.78,,,,,,,,,165.194,9.776,-0.324,2.054,0.293,32.38,212.955
0.785,0.1357,-11.2959,-0.0376,16.5966,-82.6331,-15.1961,31.2,99663.0,,,,,,,
0.79,,,,,,,,,167.308,9.791,-0.308,1.986,0.278,33.31,212.329
0.795,0.1367,-11.2817,-0.0811,18.8375,-88.8655,-14.986,31.2,99655.0,,,,,,,
0.8,,,,,,,,,169.417,9.806,-0.295,1.915,0.265,33.56,211.949
0.805,0.1353,-11.2505,-0.0796,22.8291,-92.6471,-16.1064,31.2,99608.0,,,,,,,
0.81,,,,,,,,,171.519,9.822,-0.28,1.839,0.251,34.32,211.257
0.815,0.1367,-11.2432,-0.0796,20.6583,-95.9384,-16.1765,31.2,99603.0,,,,,,,
0.82,,,,,,,,,173.617,9.837,-0.262,1.76,0.237,35.16,210.839
0.825,0.1196,-11.2109,-0.0757,18.0672,-99.2297,-14.916,31.2,99607.0,,,,,,,
0.83,,,,,,,,,175.71,9.852,-0.245,1.678,0.222,35.67,210.431
0.835,0.1157,-11.186,-0.0977,8.2633,-100.4202,-14.6359,31.2,99588.0,,,,,,,
0.84,,,,,,,,,177.795,9.867,-0.231,1.593,0.209,35.84,209.672
0.845,0.1045,-11.1885,-0.0952,6.1625,-103.7115,-15.2661,31.2,99593.0,,,,,,,
0.85,,,,,,,,,179.876,9.881,-0.224,1.506,0.198,36.51,209.397
0.855,0.1143,-11.1919,-0.0894,1.0504,-103.7815,-14.2157,31.2,99562.0,,,,,,,
0.86,,,,,,,,,181.951,9.894,-0.22,1.417,0.186,40.48,208.79
0.865,0.1118,-11.2095,-0.1045,14.0756,-113.3053,-12.395,31.2,99569.0,,,,,,,
0.87,,,,,,,,,184.025,9.907,-0.22,1.327,0.176,40.57,208.648
0.875,0.1069,-11.2163,-0.0942,10.6443,-118.9076,-11.4846,31.1,99548.0,,,,,,,
0.88,,,,,,,,,186.091,9.92,-0.208,1.229,0.166,40.9,208.021
0.885,0.1021,-11.1323,-0.0884,-3.3613,-117.2269,-11.3445,31.2,99537.0,,,,,,,
0.89,,,,,,,,,188.157,9.933,-0.199,1.126,0.157,41.75,208.021
0.895,0.1216,-11.0903,-0.0991,-8.9636,-122.1989,-8.2633,31.2,99528.0,,,,,,,
0.9,,,,,,,,,190.222,9.944,-0.202,1.025,0.15,42.17,207.993
0.905,0.1147,-11.0664,-0.084,-7.2829,-131.5126,-6.7227,31.2,99531.0,,,,,,,
0.91,,,,,,,,,192.283,9.954,-0.21,0.919,0.146,43.77,207.651
0.915,0.1196,-11.0469,-0.0674,10.084,-141.1064,-5.7423,31.2,99502.0,,,,,,,
0.92,,,,,,,,,194.343,9.964,-0.216,0.804,0.144,44.37,207.585
0.925,0.0947,-11.0244,-0.0928,-3.3613,-139.8459,-5.7423,31.2,99494.0,,,,,,,
0.93,,,,,,,,,196.401,9.973,-0.207,0.682,0.141,45.55,207.537
0.935,0.1255,-11.0034,-0.0747,6.1625,-150.0,-5.8824,31.2,99499.0,,,,,,,
0.94,,,,,,,,,198.449,9.981,-0.209,0.56,0.139,46.48,206.494
0.945,0.1221,-10.9956,-0.0698,-9.3137,-146.9188,-4.1317,31.2,99467.0,,,,,,,
0.95,,,,,,,,,200.487,9.987,-0.203,0.43,0.137,46.98,205.678
0.955,0.1167,-10.9688,-0.061,-14.4958,-147.409,-3.2213,31.2,99475.0,,,,,,,
0.96,,,,,,,,,202.52,9.992,-0.21,0.302,0.136,47.23,205.213
0.965,0.1187,-10.9385,-0.0562,-4.4118,-155.3922,-4.3417,31.2,99483.0,,,,,,,
0.97,,,,,,,,,204.549,9.995,-0.222,0.173,0.137,49.43,204.834
0.975,0.1221,-10.9287,-0.0376,20.5182,-168.9776,-4.2717,31.2,99458.0,,,,,,,
0.98,,,,,,,,,206.572,9.996,-0.225,0.038,0.136,49.68,204.397
0.985,0.1357,-10.9077,-0.0581,-1.6807,-163.9356,-2.451,31.1,99453.0,,,,,,,
0.99,,,,,,,,,208.59,9.996,-0.205,-0.108,0.136,50.11,203.989
0.995,0.1367,-10.8804,-0.0361,2.8011,-166.7367,-3.1513,31.2,99467.0,,,,,,,
1.0,,,,,,,,,210.606,9.993,-0.206,-0.251,0.137,51.04,203.837
1.005,0.1523,-10.8687,-0.019,17.7171,-176.1204,-4.4118,31.2,99461.0,,,,,,,
1.01,,,,,,,,,212.616,9.989,-0.202,-0.396,0.137,51.71,203.316
1.015,0.1421,-10.8428,-0.0356,-17.3669,-163.6555,-3.3613,31.2,99436.0,,,,,,,
1.02,,,,,,,,,214.619,9.982,-0.185,-0.549,0.137,52.39,202.727
1.025,0.1445,-10.8311,-0.0322,-12.1148,-166.2465,-3.9916,31.2,99455.0,,,,,,,
1.03,,,,,,,,,216.619,9.973,-0.199,-0.692,0.136,52.39,202.538
1.035,0.1699,-10.8374,0.0005,-19.6779,-165.1961,-6.5826,31.2,99445.0,,,,,,,
1.04,,,,,,,,,218.613,9.961,-0.208,-0.837,0.135,52.89,202.13
1.045,0.1387,-10.8169,-0.0112,-9.2437,-171.5686,-7.1429,31.2,99432.0,,,,,,,
1.05,,,,,,,,,220.601,9.948,-0.223,-0.98,0.131,53.15,201.598
1.055,0.1753,-10.8008,0.0298,0.6303,-177.3109,-6.4426,31.2,99433.0,,,,,,,
1.06,,,,,,,,,222.585,9.932,-0.23,-1.129,0.128,53.4,201.371
1.065,0.1602,-10.7808,0.0239,-0.8403,-178.5714,-8.3333,31.2,99425.0,,,,,,,
1.07,,,,,,,,,224.563,9.913,-0.227,-1.282,0.126,53.57,200.868
1.075,0.1953,-10.7749,0.0625,-27.2409,-167.0168,-11.0644,31.2,99442.0,,,,,,,
1.08,,,,,,,,,226.539,9.892,-0.226,-1.437,0.122,54.25,200.763
1.085,0.1577,-10.7632,0.0454,6.5826,-183.4034,-12.1148,31.2,99437.0,,,,,,,
1.09,,,,,,,,,228.512,9.87,-0.247,-1.581,0.112,54.5,200.64
1.095,0.1763,-10.7568,0.04,-1.4706,-178.0112,-13.0252,31.2,99438.0,,,,,,,
1.1,,,,,,,,,230.481,9.844,-0.239,-1.739,0.107,54.92,200.365
1.105,0.188,-10.7412,0.0508,-9.1036,-174.3697,-16.3165,31.2,99448.0,,,,,,,
1.11,,,,,,,,,232.445,9.816,-0.237,-1.891,0.099,54.92,200.052
1.115,0.1641,-10.728,0.0386,28.5014,-189.2857,-18.2073,31.2,99438.0,,,,,,,
1.12,,,,,,,,,234.403,9.786,-0.241,-2.041,0.088,54.84,199.663
1.125,0.1577,-10.7241,0.0435,21.9188,-186.2745,-18.6975,31.2,99450.0,,,,,,,
1.13,,,,,,,,,236.359,9.751,-0.213,-2.202,0.081,54.84,199.549
1.135,0.1831,-10.6992,0.0195,-3.5014,-170.4482,-19.6779,31.2,99424.0,,,,,,,
1.14,,,,,,,,,238.31,9.715,-0.19,-2.36,0.073,54.84,199.321
1.145,0.1587,-10.6899,0.0537,-28.7815,-157.3529,-21.6387,31.2,99433.0,,,,,,,
1.15,,,,,,,,,240.258,9.679,-0.189,-2.504,0.058,54.84,199.198
1.155,0.1592,-10.6812,0.0552,-0.4202,-170.8683,-21.9188,31.2,99408.0,,,,,,,
1.16,,,,,,,,,242.202,9.643,-0.208,-2.637,0.036,54.84,198.894
1.165,0.1592,-10.6768,0.0171,-3.7815,-171.3585,-21.9188,31.2,99408.0,,,,,,,
1.17,,,,,,,,,244.141,9.603,-0.204,-2.781,0.021,54.84,198.638
1.175,0.1416,-10.6655,0.043,16.1064,-179.6919,-23.2493,31.1,99397.0,,,,,,,
1.18,,,,,,,,,246.077,9.56,-0.202,-2.924,0.005,54.92,198.562
1.185,0.1299,-10.6475,0.0454,15.6162,-181.7227,-22.9692,31.2,99360.0,,,,,,,
1.19,,,,,,,,,248.006,9.513,-0.184,-3.074,-0.006,55.26,198.079
1.195,0.1372,-10.6333,0.0522,23.0392,-186.2045,-22.3389,31.2,99369.0,,,,,,,
1.2,,,,,,,,,249.932,9.464,-0.165,-3.225,-0.018,56.02,197.898
1.205,0.1221,-10.6152,0.0029,-6.0924,-169.1877,-21.3585,31.2,99346.0,,,,,,,
1.21,,,,,,,,,251.855,9.41,-0.141,-3.378,-0.028,57.37,197.727
1.215,0.1001,-10.6138,0.0327,-15.1961,-170.7983,-20.9384,31.2,99311.0,,,,,,,
1.22,,,,,,,,,253.774,9.359,-0.141,-3.517,-0.045,57.37,197.642
1.225,0.1211,-10.6377,-0.0068,-44.4678,-165.3361,-20.098,31.2,99307.0,,,,,,,
1.23,,,,,,,,,255.69,9.306,-0.149,-3.656,-0.065,58.3,197.424
1.235,0.0981,-10.627,0.0015,14.0756,-192.9272,-18.8375,31.2,99289.0,,,,,,,
1.24,,,,,,,,,257.601,9.251,-0.18,-3.789,-0.093,60.67,197.073
1.245,0.1196,-10.623,0.0156,7.9132,-186.6947,-17.0168,31.1,99260.0,,,,,,,
1.25,,,,,,,,,259.509,9.186,-0.165,-3.945,-0.101,61.43,196.883
1.255,0.0996,-10.6313,0.0068,40.4062,-195.2381,-16.1765,31.1,99232.0,,,,,,,
1.26,,,,,,,,,261.414,9.121,-0.155,-4.094,-0.109,62.62,196.798
1.265,0.1333,-10.6104,0.02,34.1036,-196.6387,-14.5658,31.2,99241.0,,,,,,,
1.27,,,,,,,,,263.318,9.05,-0.12,-4.249,-0.105,65.58,196.76
1.275,0.0688,-10.5898,-0.0112,23.8095,-192.9272,-12.7451,31.2,99223.0,,,,,,,
1.28,,,,,,,,,265.218,8.976,-0.09,-4.404,-0.102,65.92,196.674
1.285,0.1382,-10.5908,0.0098,-59.1036,-162.3249,-9.1737,31.2,99203.0,,,,,,,
1.29,,,,,,,,,267.116,8.901,-0.069,-4.555,-0.101,67.44,196.598
1.295,0.1377,-10.5757,0.0381,-27.1709,-178.2213,-8.2633,31.2,99183.0,,,,,,,
1.3,,,,,,,,,269.012,8.835,-0.113,-4.679,-0.131,69.89,196.447
1.305,0.1079,-10.5811,0.002,-15.4062,-185.7843,-7.7731,31.2,99217.0,,,,,,,
1.31,,,,,,,,,270.906,8.761,-0.134,-4.816,-0.147,71.5,196.418
1.315,0.124,-10.5713,0.0425,-29.0616,-174.8599,-6.1625,31.2,99205.0,,,,,,,
1.32,,,,,,,,,272.796,8.682,-0.145,-4.957,-0.157,72.26,196.352
1.325,0.166,-10.5493,0.0459,-30.4622,-167.9272,-4.2017,31.2,99192.0,,,,,,,
1.33,,,,,,,,,274.681,8.605,-0.168,-5.088,-0.173,73.02,195.972
1.335,0.1611,-10.5503,0.0059,-41.8067,-160.7843,-5.6022,31.2,99216.0,,,,,,,
1.34,,,,,,,,,276.563,8.529,-0.192,-5.213,-0.187,73.53,195.953
1.345,0.1299,-10.5366,0.0327,-59.944,-158.3333,-6.4426,31.2,99199.0,,,,,,,
1.35,,,,,,,,,278.441,8.454,-0.224,-5.331,-0.208,73.62,195.783
1.355,0.1733,-10.5396,0.0537,-32.0028,-167.0868,-5.8123,31.2,99195.0,,,,,,,
1.36,,,,,,,,,280.315,8.378,-0.269,-5.446,-0.238,74.55,195.678
1.365,0.1406,-10.5337,0.0459,-18.7675,-172.3389,-7.0728,31.2,99163.0,,,,,,,
1.37,,,,,,,,,282.185,8.297,-0.294,-5.567,-0.253,74.72,195.593
1.375,0.1177,-10.541,0.0498,13.3754,-189.0756,-9.5938,31.1,99138.0,,,,,,,
1.38,,,,,,,,,284.048,8.212,-0.309,-5.691,-0.263,75.06,195.185
1.385,0.1562,-10.5356,0.0659,-0.1401,-181.7227,-9.4538,31.2,99166.0,,,,,,,
1.39,,,,,,,,,285.909,8.117,-0.299,-5.826,-0.259,75.4,195.166
1.395,0.1841,-10.5044,0.0469,8.1933,-183.6134,-8.5434,31.1,99166.0,,,,,,,
1.4,,,,,,,,,287.764,8.024,-0.299,-5.954,-0.261,75.4,195.005
1.405,0.1484,-10.5132,0.0449,71.6387,-205.112,-11.4146,31.2,99127.0,,,,,,,
1.41,,,,,,,,,289.616,7.927,-0.294,-6.082,-0.258,75.65,194.976
1.415,0.1509,-10.5107,-0.0063,72.8992,-200.4902,-13.7255,31.2,99117.0,,,,,,,
1.42,,,,,,,,,291.465,7.819,-0.244,-6.224,-0.223,77.85,194.919
1.425,0.1401,-10.4966,0.0718,24.8599,-180.8123,-13.0952,31.2,99102.0,,,,,,,
1.43,,,,,,,,,293.311,7.71,-0.191,-6.361,-0.189,77.85,194.9
1.435,0.1689,-10.4912,0.0034,-23.1793,-160.4342,-14.0056,31.2,99072.0,,,,,,,
1.44,,,,,,,,,295.154,7.609,-0.171,-6.483,-0.181,78.1,194.862
1.445,0.1045,-10.481,-0.0049,15.6162,-180.6723,-16.1765,31.2,99050.0,,,,,,,
1.45,,,,,,,,,296.99,7.517,-0.182,-6.588,-0.202,80.22,194.464
1.455,0.1074,-10.4751,0.0615,48.5294,-187.395,-16.5966,31.2,99047.0,,,,,,,
1.46,,,,,,,,,298.823,7.412,-0.166,-6.706,-0.201,81.15,194.416
1.465,0.1152,-10.4766,-0.0308,-64.1457,-142.9272,-12.8852,31.2,98999.0,,,,,,,
1.47,,,,,,,,,300.651,7.302,-0.129,-6.827,-0.181,82.0,194.293
1.475,0.1309,-10.4727,0.0264,-22.479,-157.0728,-12.0448,31.1,98968.0,,,,,,,
1.48,,,,,,,,,302.476,7.216,-0.165,-6.917,-0.226,83.27,194.141
1.485,0.1201,-10.4624,-0.0176,-4.6218,-167.8571,-11.7647,31.2,98961.0,,,,,,,
1.49,,,,,,,,,304.297,7.12,-0.176,-7.015,-0.245,85.82,194.037
1.495,0.0688,-10.4521,0.0005,12.3249,-174.5098,-10.6443,31.1,98952.0,,,,,,,
1.5,,,,,,,,,306.114,7.016,-0.176,-7.118,-0.253,87.68,193.838
1.505,0.1235,-10.4331,0.0322,7.563,-171.9188,-9.0336,31.2,98915.0,,,,,,,
1.51,,,,,,,,,307.927,6.907,-0.166,-7.224,-0.249,87.94,193.752
1.515,0.126,-10.4287,-0.0137,34.944,-185.4342,-7.8431,31.2,98907.0,,,,,,,
1.52,,,,,,,,,309.738,6.798,-0.16,-7.327,-0.248,92.01,193.724
1.525,0.1143,-10.4038,0.0312,73.2493,-196.4986,-6.3025,31.2,98901.0,,,,,,,
1.53,,,,,,,,,311.548,6.679,-0.139,-7.437,-0.228,94.64,193.676
1.535,0.1167,-10.396,0.001,55.8824,-184.8039,-5.1821,31.2,98881.0,,,,,,,
1.54,,,,,,,,,313.351,6.551,-0.097,-7.551,-0.182,95.23,193.477
1.545,0.1167,-10.374,0.0264,28.8515,-179.4118,-4.2717,31.2,98899.0,,,,,,,
1.55,,,,,,,,,315.149,6.429,-0.065,-7.657,-0.147,95.99,193.278
1.555,0.1279,-10.3579,0.0371,17.6471,-167.437,-3.2913,31.2,98885.0,,,,,,,
1.56,,,,,,,,,316.942,6.309,-0.049,-7.757,-0.13,99.13,192.908
1.565,0.1245,-10.3525,0.0269,5.6723,-158.4734,-2.6611,31.1,98873.0,,,,,,,
1.57,,,,,,,,,318.73,6.195,-0.04,-7.848,-0.12,99.81,192.822
1.575,0.1333,-10.3315,0.0366,-7.0728,-145.3782,-3.5714,31.2,98900.0,,,,,,,
1.58,,,,,,,,,320.51,6.086,-0.037,-7.933,-0.117,100.32,192.339
1.585,0.1323,-10.3433,0.0127,59.2437,-158.9636,-4.7619,31.2,98906.0,,,,,,,
1.59,,,,,,,,,322.283,5.985,-0.041,-8.009,-0.124,100.41,192.187
1.595,0.1328,-10.3252,0.001,-41.5966,-119.958,-6.7927,31.2,98899.0,,,,,,,
1.6,,,,,,,,,324.047,5.874,-0.009,-8.092,-0.085,100.41,191.76
1.605,0.1113,-10.2837,0.0171,21.4986,-135.7143,-7.0028,31.2,98945.0,,,,,,,
1.61,,,,,,,,,325.804,5.789,-0.027,-8.152,-0.118,100.49,191.447
1.615,0.127,-10.2285,0.0166,29.8319,-133.8936,-7.0028,31.2,98686.0,,,,,,,
1.62,,,,,,,,,327.555,5.692,-0.013,-8.221,-0.106,100.49,191.342
1.625,0.1416,-10.0537,-0.0063,7.2829,-117.6471,-7.8431,31.2,98515.0,,,,,,,
1.63,,,,,,,,,329.299,5.596,0.004,-8.287,-0.089,100.49,191.162
1.635,0.0928,-9.7246,-0.0034,75.7703,-122.3389,-9.4538,31.2,98364.0,,,,,,,
1.64,,,,,,,,,331.036,5.51,0.012,-8.344,-0.088,100.49,190.934
1.645,0.1221,-9.3931,-0.0151,63.8655,-110.6443,-11.1345,31.2,98287.0,,,,,,,
1.65,,,,,,,,,332.768,5.421,0.053,-8.402,-0.038,101.68,190.811
1.655,0.1016,-9.0254,-0.0029,-29.5518,-69.5378,-11.6246,31.2,98239.0,,,,,,,
1.66,,,,,,,,,334.488,5.339,0.091,-8.454,0.001,102.7,190.005
1.665,0.0581,-8.7251,-0.0469,60.084,-94.0476,-12.3249,31.2,98183.0,,,,,,,
1.67,,,,,,,,,336.207,5.288,0.085,-8.486,-0.026,118.59,188.933
1.675,0.0425,-8.4297,0.0508,-23.0392,-24.5798,-11.2045,31.2,98118.0,,,,,,,
1.68,,,,,,,,,337.903,5.218,0.121,-8.529,0.011,133.14,185.536
1.685,0.0942,-8.0649,-0.0908,-29.7619,-66.1064,-10.9244,31.2,98089.0,,,,,,,
1.69,,,,,,,,,339.543,5.2,0.118,-8.54,-0.011,146.0,179.142
1.695,0.0708,-7.7339,-0.064,-24.1597,-79.7619,-9.8739,31.2,97926.0,,,,,,,
1.7,,,,,,,,,341.12,5.151,0.112,-8.569,-0.04,152.57,172.7
1.705,0.0474,-7.3496,0.0015,34.944,-108.4034,-10.014,31.2,97612.0,,,,,,,
1.71,,,,,,,,,342.625,5.092,0.108,-8.605,-0.064,156.67,165.556
1.715,0.0557,-6.5908,-0.0391,29.2717,-104.5518,-8.4034,31.2,97397.0,,,,,,,
1.72,,,,,,,,,344.072,5.01,0.13,-8.653,-0.043,161.45,159.721
1.725,0.0518,-5.6899,-0.0039,-12.1849,-99.0896,-6.8627,31.2,97261.0,,,,,,,
1.73,,,,,,,,,345.462,4.931,0.148,-8.698,-0.027,167.0,153.981
1.735,0.0269,-4.6328,-0.0112,-21.4986,-117.7171,-6.4426,31.2,97139.0,,,,,,,
1.74,,,,,,,,,346.779,4.856,0.147,-8.74,-0.041,169.48,146.894
1.745,-0.0044,-3.3291,0.062,26.3305,-137.0448,-4.6919,31.2,97067.0,,,,,,,
1.75,,,,,,,,,348.041,4.766,0.142,-8.789,-0.062,183.42,140.461
1.755,0.0049,-2.1431,0.0439,34.944,-144.888,-4.0616,31.2,97015.0,,,,,,,
1.76,,,,,,,,,349.254,4.66,0.155,-8.845,-0.046,210.32,132.995
1.765,0.0117,-1.251,0.0205,-93.4874,-87.8151,-2.9412,31.2,97023.0,,,,,,,
1.77,,,,,,,,,350.335,4.548,0.171,-8.903,-0.023,228.78,118.251
1.775,0.0122,-0.5288,0.0576,-36.2745,-126.7507,-4.8319,31.2,97016.0,,,,,,,
1.78,,,,,,,,,351.25,4.481,0.136,-8.937,-0.099,240.48,100.747
1.785,0.0024,0.0415,0.0918,-1.3305,-129.2017,-3.7115,31.1,96989.0,,,,,,,
1.79,,,,,,,,,351.966,4.383,0.124,-8.986,-0.131,250.98,80.207
1.795,-0.0151,0.519,0.103,-39.8459,-108.9636,-3.9216,31.2,96981.0,,,,,,,
1.8,,,,,,,,,352.432,4.281,0.124,-9.035,-0.136,257.18,54.875
1.805,0.021,0.8643,0.062,-63.8655,-86.6947,-4.6218,31.2,96944.0,,,,,,,
1.81,,,,,,,,,352.666,4.196,0.111,-9.074,-0.17,260.97,31.83
1.815,-0.0435,1.1382,0.1113,27.451,-117.9972,-4.902,31.1,96961.0,,,,,,,
1.82,,,,,,,,,352.723,4.128,0.089,-9.104,-0.224,261.58,14.497
1.825,-0.0293,1.2637,0.1514,3.0812,-100.07,-3.2913,31.2,96975.0,,,,,,,
1.83,,,,,,,,,352.635,4.033,0.1,-9.147,-0.206,261.66,0.465
1.835,-0.0127,1.415,0.1465,-26.1905,-83.8936,-3.5714,31.2,96968.0,,,,,,,
1.84,,,,,,,,,352.434,3.954,0.101,-9.182,-0.206,263.9,-10.616
1.845,0.0127,1.4678,0.249,0.2101,-86.8347,-6.7927,31.2,97005.0,,,,,,,
1.85,,,,,,,,,352.135,3.887,0.093,-9.21,-0.229,264.59,-19.895
1.855,0.0127,1.5703,0.2061,15.9664,-87.605,-10.3641,31.1,97014.0,,,,,,,
1.86,,,,,,,,,351.765,3.817,0.096,-9.239,-0.233,264.59,-26.603
1.865,-0.0107,1.6719,0.2363,-52.7311,-44.0476,-10.084,31.2,97030.0,,,,,,,
1.87,,,,,,,,,351.336,3.746,0.108,-9.268,-0.225,264.59,-31.925
1.875,-0.0903,1.6841,0.2104,17.437,-72.479,-8.2633,31.2,96994.0,,,,,,,
1.88,,,,,,,,,350.877,3.711,0.097,-9.281,-0.272,264.59,-34.363
1.885,-0.0781,1.6885,0.2271,-15.1961,-66.7367,-5.3922,31.1,96981.0,,,,,,,
1.89,,,,,,,,,350.383,3.652,0.108,-9.304,-0.262,264.59,-37.305
1.895,-0.0103,1.7061,0.2305,-91.7367,-0.7703,-1.2605,31.2,96979.0,,,,,,,
1.9,,,,,,,,,349.873,3.598,0.105,-9.325,-0.277,264.59,-38.329
1.905,0.0063,1.6929,0.2334,-33.7535,-36.8347,-1.7507,31.1,96978.0,,,,,,,
1.91,,,,,,,,,349.339,3.598,0.077,-9.323,-0.353,264.59,-40.322
1.915,-0.0132,1.7012,0.2495,-26.6106,-18.6975,-1.3305,31.1,96979.0,,,,,,,
1.92,,,,,,,,,348.778,3.568,0.066,-9.333,-0.382,264.59,-42.295
1.925,-0.0444,1.7017,0.3062,15.1261,-7.7031,-1.8908,31.1,97000.0,,,,,,,
1.93,,,,,,,,,348.21,3.553,0.058,-9.338,-0.404,264.59,-42.532
1.935,-0.0103,1.6875,0.3271,-4.8319,-44.1877,-0.7003,31.1,96984.0,,,,,,,
1.94,,,,,,,,,347.634,3.547,0.063,-9.341,-0.393,263.47,-42.618
1.945,-0.0107,1.6714,0.3232,-9.8739,-51.4006,-0.7703,31.1,96976.0,,,,,,,
1.95,,,,,,,,,347.053,3.511,0.06,-9.354,-0.398,264.34,-42.618
1.955,-0.02,1.666,0.3052,76.4006,-83.5434,-2.521,31.1,96975.0,,,,,,,
1.96,,,,,,,,,346.466,3.47,0.056,-9.369,-0.408,264.59,-42.618
1.965,0.0278,1.6421,0.3149,15.8263,-41.2465,-2.381,31.1,96968.0,,,,,,,
1.97,,,,,,,,,345.874,3.401,0.077,-9.397,-0.347,264.77,-42.618
1.975,-0.0127,1.6499,0.3398,77.451,-71.4286,-3.2213,31.1,96935.0,,,,,,,
1.98,,,,,,,,,345.275,3.367,0.082,-9.409,-0.336,264.77,-42.618
1.985,-0.0107,1.645,0.3467,14.0056,-42.437,-0.2801,31.1,96918.0,,,,,,,
1.99,,,,,,,,,344.671,3.308,0.105,-9.432,-0.274,264.85,-42.599
1.995,0.0,1.6475,0.334,-42.9972,-26.9608,0.8403,31.2,96862.0,,,,,,,
2.0,,,,,,,,,344.064,3.273,0.108,-9.444,-0.264,265.03,-42.285
2.005,0.0234,1.6294,0.3223,-24.6499,-29.3417,-0.2801,31.2,96850.0,,,,,,,
2.01,,,,,,,,,343.452,3.251,0.094,-9.451,-0.3,265.11,-42.181
2.015,0.0015,1.6309,0.3203,65.8263,-76.3305,-2.0308,31.1,96808.0,,,,,,,
2.02,,,,,,,,,342.838,3.227,0.086,-9.458,-0.321,265.72,-41.868
2.025,-0.0073,1.6265,0.3286,12.3249,-47.9692,-1.2605,31.1,96735.0,,,,,,,
2.03,,,,,,,,,342.222,3.164,0.104,-9.481,-0.269,268.56,-41.821
2.035,0.0054,1.626,0.3237,53.5014,-64.6359,-2.9412,31.1,96730.0,,,,,,,
2.04,,,,,,,,,341.603,3.124,0.107,-9.495,-0.26,270.03,-41.773
2.045,0.0122,1.6099,0.3369,37.465,-45.5182,-1.0504,31.2,96698.0,,,,,,,
2.05,,,,,,,,,340.985,3.07,0.122,-9.513,-0.218,274.86,-41.716
2.055,0.0029,1.605,0.3184,17.577,-35.4342,-1.1905,31.1,96692.0,,,,,,,
2.06,,,,,,,,,340.364,3.032,0.131,-9.526,-0.188,275.9,-41.498
2.065,0.0156,1.6055,0.3413,35.2941,-49.1597,-2.381,31.1,96668.0,,,,,,,
2.07,,,,,,,,,339.742,3.003,0.136,-9.535,-0.175,279.53,-41.47
2.075,0.0156,1.6006,0.3105,28.9216,-39.4258,-1.8908,31.2,96594.0,,,,,,,
2.08,,,,,,,,,339.124,2.962,0.146,-9.548,-0.147,285.83,-41.413
2.085,0.0186,1.5996,0.3242,53.4314,-57.0028,-3.2213,31.2,96584.0,,,,,,,
2.09,,,,,,,,,338.5,2.929,0.154,-9.559,-0.125,286.26,-41.403
2.095,-0.0093,1.6069,0.2964,49.7199,-55.6723,-2.521,31.1,96554.0,,,,,,,
2.1,,,,,,,,,337.878,2.88,0.169,-9.574,-0.083,289.03,-41.09
2.105,0.0186,1.5928,0.3115,33.5434,-44.958,-2.521,31.1,96530.0,,,,,,,
2.11,,,,,,,,,337.25,2.833,0.183,-9.588,-0.043,289.55,-41.033
2.115,0.0117,1.6089,0.2925,12.8151,-41.9468,-3.1513,31.1,96450.0,,,,,,,
2.12,,,,,,,,,336.619,2.795,0.193,-9.599,-0.017,291.63,-41.005
2.125,-0.0034,1.5791,0.3257,15.6162,-32.1429,-3.2913,31.1,96397.0,,,,,,,
2.13,,,,,,,,,335.991,2.76,0.198,-9.609,-0.009,298.03,-41.005
2.135,-0.002,1.5806,0.3096,-27.9412,-16.7367,-3.1513,31.1,96339.0,,,,,,,
2.14,,,,,,,,,335.358,2.733,0.204,-9.616,0.001,298.89,-40.995
2.145,-0.0181,1.5938,0.3149,0.7703,-39.3557,-3.0112,31.1,96292.0,,,,,,,
2.15,,,,,,,,,334.724,2.72,0.2,-9.62,-0.023,301.49,-40.91
2.155,0.0156,1.5967,0.2964,-70.2381,9.4538,-2.0308,31.1,96243.0,,,,,,,
2.16,,,,,,,,,334.087,2.687,0.202,-9.629,-0.024,303.56,-40.891
2.165,-0.0195,1.5933,0.2729,-46.7087,-11.3445,-3.2913,31.1,96194.0,,,,,,,
2.17,,,,,,,,,333.454,2.696,0.187,-9.627,-0.084,310.49,-40.834
2.175,-0.0024,1.5967,0.3491,4.1317,-34.3838,-2.1709,31.1,96208.0,,,,,,,
2.18,,,,,,,,,332.823,2.688,0.178,-9.629,-0.125,315.08,-40.777
2.185,-0.0044,1.5854,0.2939,-25.8403,-23.3894,-2.6611,31.1,96272.0,,,,,,,
2.19,,,,,,,,,332.194,2.659,0.18,-9.637,-0.124,320.11,-40.777
2.195,0.0107,1.563,0.3076,2.0308,-11.6947,-1.2605,31.1,96416.0,,,,,,,
2.2,,,,,,,,,331.565,2.64,0.176,-9.642,-0.147,324.19,-40.767
2.205,0.0557,1.5767,0.2734,7.6331,-37.2549,-2.9412,31.1,96543.0,,,,,,,
2.21,,,,,,,,,330.929,2.63,0.177,-9.645,-0.146,324.19,-40.767
2.215,-0.0107,1.6416,0.3013,-83.1232,-1.1905,-0.6303,31.1,96582.0,,,,,,,
2.22,,,,,,,,,330.288,2.599,0.18,-9.653,-0.142,324.19,-40.616
2.225,0.0254,1.6143,0.2744,6.3025,-45.5182,-2.8711,31.1,96628.0,,,,,,,
2.23,,,,,,,,,329.638,2.599,0.161,-9.652,-0.213,324.19,-40.767
2.235,-0.0195,1.6123,0.3232,-9.2437,-45.028,-1.5406,31.1,96617.0,,,,,,,
2.24,,,,,,,,,328.982,2.561,0.164,-9.662,-0.209,324.19,-40.777
2.245,0.0273,1.5791,0.2798,-23.8796,-41.9468,-1.5406,31.1,96582.0,,,,,,,
2.25,,,,,,,,,328.299,2.523,0.162,-9.672,-0.219,313.44,-40.834
2.255,0.0024,1.5786,0.2617,-8.4034,-42.6471,-2.0308,31.1,96527.0,,,,,,,
2.26,,,,,,,,,327.591,2.488,0.157,-9.681,-0.241,302.44,-40.767
2.265,0.0161,1.5522,0.2988,-74.0196,-24.4398,-2.591,31.1,96415.0,,,,,,,
2.27,,,,,,,,,326.877,2.452,0.155,-9.69,-0.25,302.44,-40.616
2.275,0.0186,1.4575,0.2573,13.3754,-45.9384,-2.1008,31.1,96330.0,,,,,,,
2.28,,,,,,,,,326.157,2.433,0.141,-9.693,-0.314,302.44,-40.492
2.285,0.0122,1.4531,0.2627,5.8123,-50.2101,-0.8403,31.1,96289.0,,,,,,,
2.29,,,,,,,,,325.43,2.394,0.144,-9.703,-0.304,302.44,-40.483
2.295,0.0073,1.4014,0.3066,-9.6639,-60.5742,-2.1709,31.1,96248.0,,,,,,,
2.3,,,,,,,,,324.695,2.352,0.144,-9.713,-0.301,302.44,-40.483
2.305,0.0332,1.3408,0.3018,17.577,-66.7367,-1.7507,31.1,96537.0,,,,,,,
2.31,,,,,,,,,323.956,2.3,0.142,-9.725,-0.311,303.83,-40.483
2.315,0.0352,1.3389,0.2852,-81.3025,-13.4454,-1.7507,31.1,97035.0,,,,,,,
2.32,,,,,,,,,323.215,2.244,0.145,-9.739,-0.298,303.83,-39.971
2.325,0.0342,1.3179,0.2715,-25.4902,-28.1513,-2.8011,31.1,96996.0,,,,,,,
2.33,,,,,,,,,322.484,2.233,0.129,-9.739,-0.368,303.83,-38.13
2.335,0.0586,1.332,0.3027,-51.8908,-32.7031,-3.7815,31.1,96970.0,,,,,,,
2.34,,,,,,,,,321.747,2.21,0.126,-9.743,-0.391,303.83,-38.045
2.345,0.021,1.3213,0.2319,31.7227,-42.7171,-3.5714,31.1,96945.0,,,,,,,
2.35,,,,,,,,,321.013,2.183,0.117,-9.748,-0.437,303.83,-37.039
2.355,0.0137,1.3271,0.3452,-14.4258,-28.5014,-3.5714,31.1,97050.0,,,,,,,
2.36,,,,,,,,,320.281,2.146,0.124,-9.757,-0.412,302.96,-35.862
2.365,-0.0186,1.332,0.269,68.3473,-67.3669,-2.8711,31.1,96973.0,,,,,,,
2.37,,,,,,,,,319.476,2.122,0.123,-9.762,-0.426,267.7,-35.825
2.375,0.0669,1.3589,0.2983,-18.9076,-42.7871,-2.6611,31.1,96877.0,,,,,,,
2.38,,,,,,,,,318.66,2.064,0.136,-9.776,-0.37,265.54,-35.692
2.385,-0.0283,1.314,0.293,-49.7899,-27.3109,-2.8711,31.1,96783.0,,,,,,,
2.39,,,,,,,,,317.836,2.028,0.133,-9.783,-0.388,265.54,-35.692
2.395,0.0518,1.3154,0.314,41.4566,-62.9552,-3.3613,31.1,96730.0,,,,,,,
2.4,,,,,,,,,317.004,2.005,0.125,-9.786,-0.432,265.54,-35.692
2.405,0.0161,1.3022,0.2764,-14.1457,-39.0056,-2.1709,31.1,96626.0,,,,,,,
2.41,,,,,,,,,316.166,1.951,0.132,-9.798,-0.398,265.54,-35.597
2.415,0.0459,1.2812,0.2627,0.9804,-47.0588,-2.521,31.1,96491.0,,,,,,,
2.42,,,,,,,,,315.325,1.918,0.13,-9.804,-0.412,267.7,-35.483
2.425,0.0229,1.293,0.3267,-24.1597,-44.1176,-2.6611,31.1,96382.0,,,,,,,
2.43,,,,,,,,,314.488,1.878,0.13,-9.812,-0.413,273.57,-35.483
2.435,0.0205,1.3052,0.2349,-17.577,-34.5938,-1.8207,31.1,96267.0,,,,,,,
2.44,,,,,,,,,313.66,1.84,0.127,-9.818,-0.435,281.69,-35.369
2.445,0.0923,1.2861,0.3037,-31.2325,-29.972,-2.7311,31.1,96268.0,,,,,,,
2.45,,,,,,,,,312.834,1.811,0.124,-9.823,-0.452,286.26,-35.341
2.455,0.0376,1.2812,0.2773,-6.1625,-30.2521,-2.7311,31.1,96313.0,,,,,,,
2.46,,,,,,,,,312.019,1.786,0.12,-9.826,-0.48,295.26,-35.17
2.465,0.0264,1.2495,0.2637,-75.9804,3.9216,-1.6807,31.1,96272.0,,,,,,,
2.47,,,,,,,,,311.222,1.76,0.12,-9.831,-0.487,306.94,-35.113
2.475,-0.0239,1.2676,0.2856,66.1064,-58.7535,-1.6106,31.1,96240.0,,,,,,,
2.48,,,,,,,,,310.438,1.764,0.109,-9.826,-0.553,316.38,-34.933
2.485,0.0742,1.228,0.2598,96.7087,-74.8599,-2.8711,31.1,96335.0,,,,,,,
2.49,,,,,,,,,309.659,1.713,0.118,-9.838,-0.497,322.37,-34.8
2.495,0.0254,1.2354,0.2764,20.3081,-41.6667,-2.8711,31.1,96206.0,,,,,,,
2.5,,,,,,,,,308.874,1.648,0.131,-9.853,-0.416,322.37,-34.705
2.505,0.0562,1.2583,0.2686,-19.7479,-23.3193,-3.4314,31.1,96167.0,,,,,,,
2.51,,,,,,,,,308.089,1.612,0.134,-9.86,-0.401,325.92,-34.705
2.515,0.0103,1.2319,0.272,38.5154,-42.9972,-4.0616,31.1,96129.0,,,,,,,
2.52,,,,,,,,,307.3,1.592,0.134,-9.862,-0.419,326.27,-34.439
2.525,0.0811,1.2271,0.2915,-17.0168,-22.8291,-3.1513,31.1,96061.0,,,,,,,
2.53,,,,,,,,,306.505,1.555,0.14,-9.869,-0.388,326.36,-34.259
2.535,0.0601,1.2559,0.2114,-18.2773,-23.8095,-2.521,31.1,96014.0,,,,,,,
2.54,,,,,,,,,305.71,1.536,0.14,-9.872,-0.404,328.7,-34.088
2.545,0.0034,1.2134,0.3442,15.5462,-33.1232,-3.7115,31.1,95966.0,,,,,,,
2.55,,,,,,,,,304.913,1.515,0.138,-9.874,-0.421,331.65,-34.088
2.555,0.0557,1.2305,0.2759,45.5182,-56.3025,-4.4818,31.1,95903.0,,,,,,,
2.56,,,,,,,,,304.118,1.487,0.142,-9.879,-0.409,335.04,-33.813
2.565,0.0166,1.2397,0.2769,-2.6611,-33.9636,-2.9412,31.1,95872.0,,,,,,,
2.57,,,,,,,,,303.324,1.438,0.149,-9.887,-0.372,338.34,-33.747
2.575,0.0151,1.2183,0.2637,11.8347,-42.6471,-3.7115,31.1,95831.0,,,,,,,
2.58,,,,,,,,,302.535,1.409,0.15,-9.891,-0.376,344.24,-33.747
2.585,0.04,1.2148,0.2422,-60.1541,-0.7703,-2.451,31.1,95770.0,,,,,,,
2.59,,,,,,,,,301.747,1.372,0.153,-9.897,-0.367,348.33,-33.747
2.595,0.0234,1.2373,0.3232,-52.6611,-3.1513,-3.2913,31.1,95710.0,,,,,,,
2.6,,,,,,,,,300.962,1.372,0.148,-9.895,-0.42,352.5,-33.718
2.605,-0.022,1.2075,0.2676,-3.0812,-23.0392,-2.0308,31.1,95676.0,,,,,,,
2.61,,,,,,,,,300.181,1.37,0.144,-9.893,-0.467,357.99,-33.718
2.615,0.0659,1.2041,0.3096,-3.5014,-23.5294,-2.1008,31.1,95620.0,,,,,,,
2.62,,,,,,,,,299.399,1.35,0.144,-9.896,-0.471,360.69,-33.652
2.625,0.063,1.2002,0.2358,50.4902,-48.3894,-2.2409,31.1,95586.0,,,,,,,
2.63,,,,,,,,,298.62,1.33,0.144,-9.898,-0.475,364.26,-33.481
2.635,0.0,1.1602,0.2876,105.3922,-81.5126,-3.0812,31.1,95527.0,,,,,,,
2.64,,,,,,,,,297.845,1.288,0.15,-9.906,-0.433,369.57,-33.415
2.645,0.0366,1.1797,0.2725,73.4594,-57.7731,-2.6611,31.1,95496.0,,,,,,,
2.65,,,,,,,,,297.075,1.216,0.161,-9.918,-0.344,374.8,-33.415
2.655,0.0225,1.1733,0.2778,52.3109,-48.2493,-2.3109,31.1,95451.0,,,,,,,
2.66,,,,,,,,,296.306,1.165,0.169,-9.926,-0.282,377.76,-33.272
2.665,0.043,1.1641,0.2598,113.4454,-72.3389,-2.7311,31.1,95406.0,,,,,,,
2.67,,,,,,,,,295.541,1.123,0.175,-9.932,-0.239,382.65,-33.206
2.675,0.0381,1.1655,0.3018,65.4762,-51.7507,-2.6611,31.1,95339.0,,,,,,,
2.68,,,,,,,,,294.777,1.058,0.186,-9.941,-0.143,385.61,-33.13
2.685,0.0239,1.1646,0.2578,9.8739,-21.8487,-0.8403,31.1,95311.0,,,,,,,
2.69,,,,,,,,,294.021,1.012,0.194,-9.946,-0.088,390.76,-32.732
2.695,0.0664,1.1587,0.2622,24.0896,-39.7759,-2.451,31.1,95258.0,,,,,,,
2.7,,,,,,,,,293.265,0.994,0.195,-9.948,-0.08,393.47,-32.608
2.705,0.0171,1.1714,0.2871,28.1513,-41.6667,-2.2409,31.1,95203.0,,,,,,,
2.71,,,,,,,,,292.513,0.959,0.199,-9.951,-0.061,397.4,-32.456
2.715,0.0532,1.1265,0.252,-0.4202,-14.7759,-1.2605,31.1,95174.0,,,,,,,
2.72,,,,,,,,,291.763,0.922,0.202,-9.955,-0.038,401.33,-32.456
2.725,0.0532,1.1509,0.2769,19.1877,-37.1148,-1.6106,31.1,95158.0,,,,,,,
2.73,,,,,,,,,291.019,0.91,0.203,-9.956,-0.04,407.19,-32.438
2.735,0.0703,1.1245,0.25,-28.4314,-21.0084,-2.0308,31.1,95121.0,,,,,,,
2.74,,,,,,,,,290.274,0.877,0.206,-9.959,-0.025,409.64,-32.438
2.745,0.0444,1.1611,0.2607,6.8627,-31.8627,-3.3613,31.1,95059.0,,,,,,,
2.75,,,,,,,,,289.533,0.86,0.205,-9.96,-0.051,414.27,-32.428
2.755,0.0664,1.1328,0.2549,14.4258,-36.7647,-3.2213,31.1,95016.0,,,,,,,
2.76,,,,,,,,,288.797,0.832,0.208,-9.962,-0.046,419.09,-32.371
2.765,0.0854,1.1514,0.2495,7.2129,-39.4258,-4.7619,31.1,94978.0,,,,,,,
2.77,,,,,,,,,288.06,0.8,0.211,-9.965,-0.035,421.63,-32.324
2.775,0.0176,1.1548,0.2734,-29.902,-9.944,-3.9216,31.1,94944.0,,,,,,,
2.78,,,,,,,,,287.321,0.766,0.216,-9.968,-0.031,423.03,-32.181
2.785,0.0762,1.1377,0.3506,-10.7143,-20.3782,-4.2017,31.1,94919.0,,,,,,,
2.79,,,,,,,,,286.583,0.758,0.217,-9.968,-0.058,426.27,-32.181
2.795,-0.0249,1.1279,0.2002,-43.9776,-12.465,-2.521,31.1,94857.0,,,,,,,
2.8,,,,,,,,,285.85,0.741,0.219,-9.969,-0.069,431.7,-32.172
2.805,0.0889,1.1265,0.2964,-52.6611,-8.9636,-3.0812,31.1,94837.0,,,,,,,
2.81,,,,,,,,,285.123,0.731,0.218,-9.97,-0.108,435.47,-31.916
2.815,0.0205,1.1523,0.252,-75.4902,2.9412,-1.7507,31.1,94791.0,,,,,,,
2.82,,,,,,,,,284.397,0.724,0.217,-9.97,-0.155,438.8,-31.916
2.825,0.0356,1.1436,0.3076,18.5574,-17.3669,-3.9916,31.1,94754.0,,,,,,,
2.83,,,,,,,,,283.671,0.728,0.214,-9.968,-0.222,441.79,-31.916
2.835,0.0293,1.1436,0.1953,-2.6611,-11.4146,-3.5014,31.1,94698.0,,,,,,,
2.84,,,,,,,,,282.942,0.713,0.218,-9.969,-0.207,443.98,-32.03
2.845,0.0337,1.1196,0.3818,13.0252,-40.6863,-4.972,31.1,94671.0,,,,,,,
2.85,,,,,,,,,282.22,0.703,0.22,-9.97,-0.21,449.42,-32.03
2.855,0.0444,1.1343,0.1797,16.2465,-40.9664,-4.1317,31.1,94646.0,,,,,,,
2.86,,,,,,,,,281.495,0.668,0.224,-9.973,-0.201,451.18,-32.03
2.865,0.0312,1.1191,0.3301,41.8768,-52.521,-3.6415,31.1,94597.0,,,,,,,
2.87,,,,,,,,,280.774,0.632,0.228,-9.975,-0.189,455.22,-31.916
2.875,0.0547,1.1182,0.2329,-29.972,-25.0,-3.7815,31.1,94537.0,,,,,,,
2.88,,,,,,,,,280.056,0.586,0.232,-9.978,-0.154,458.47,-31.849
2.885,0.0098,1.1226,0.3149,10.6443,-42.577,-4.5518,31.1,94520.0,,,,,,,
2.89,,,,,,,,,279.344,0.565,0.233,-9.979,-0.182,463.39,-31.726
2.895,0.0161,1.1147,0.3003,-48.6695,-13.1653,-4.5518,31.1,94485.0,,,,,,,
2.9,,,,,,,,,278.632,0.527,0.237,-9.981,-0.174,465.77,-31.697
2.905,0.0186,1.1133,0.2437,12.9552,-49.2997,-2.381,31.1,94428.0,,,,,,,
2.91,,,,,,,,,277.919,0.517,0.238,-9.981,-0.218,467.96,-31.622
2.915,0.041,1.1211,0.2275,-11.7647,-34.2437,-0.3501,31.1,94395.0,,,,,,,
2.92,,,,,,,,,277.211,0.474,0.24,-9.983,-0.209,472.28,-31.565
2.925,0.019,1.1011,0.3013,-36.4146,-31.3725,-0.6303,31.1,94338.0,,,,,,,
2.93,,,,,,,,,276.509,0.445,0.239,-9.984,-0.22,477.56,-31.565
2.935,0.0044,1.1099,0.3643,48.5294,-52.3109,-1.8908,31.1,94340.0,,,,,,,
2.94,,,,,,,,,275.805,0.418,0.237,-9.985,-0.254,479.05,-31.555
2.945,0.082,1.0928,0.1851,109.944,-64.8459,-3.0812,31.1,94260.0,,,,,,,
2.95,,,,,,,,,275.102,0.372,0.239,-9.987,-0.213,482.14,-31.536
2.955,-0.0352,1.1079,0.3286,10.7143,-38.5854,-0.7703,31.1,94230.0,,,,,,,
2.96,,,,,,,,,274.406,0.313,0.244,-9.991,-0.12,487.16,-31.47
2.965,0.0396,1.1074,0.2617,-51.6807,-22.479,1.4006,31.1,94219.0,,,,,,,
2.97,,,,,,,,,273.711,0.28,0.244,-9.992,-0.112,490.07,-31.441
2.975,0.0449,1.1133,0.312,-57.0028,-21.7087,2.2409,31.1,94131.0,,,,,,,
2.98,,,,,,,,,273.022,0.261,0.241,-9.992,-0.158,494.92,-31.375
2.985,0.0552,1.0889,0.2822,-7.9832,-43.1373,1.4706,31.1,94108.0,,,,,,,
2.99,,,,,,,,,272.328,0.244,0.237,-9.991,-0.209,495.09,-31.375
2.995,0.0571,1.062,0.251,-30.6022,-39.5658,0.2101,31.1,94062.0,,,,,,,
3.0,,,,,,,,,271.645,0.207,0.235,-9.992,-0.218,501.97,-31.337
3.005,0.0083,1.0664,0.3022,27.1709,-68.8375,0.0,31.1,94026.0,,,,,,,
3.01,,,,,,,,,270.962,0.173,0.233,-9.992,-0.246,504.62,-31.327
3.015,0.0454,1.0815,0.2827,-14.7759,-58.6835,0.9804,31.1,93995.0,,,,,,,
3.02,,,,,,,,,270.277,0.113,0.232,-9.994,-0.224,505.59,-31.204
3.025,0.1104,1.0596,0.2139,-41.3165,-48.1793,0.7003,31.1,93949.0,,,,,,,
3.03,,,,,,,,,269.607,0.062,0.23,-9.994,-0.239,513.36,-31.043
3.035,0.0566,1.043,0.251,-20.3081,-54.2717,-0.6303,31.1,93896.0,,,,,,,
3.04,,,,,,,,,268.937,0.021,0.227,-9.993,-0.277,515.4,-30.967
3.045,0.0815,1.064,0.2812,-6.6527,-64.2157,-1.2605,31.1,93880.0,,,,,,,
3.05,,,,,,,,,268.273,-0.025,0.226,-9.992,-0.296,519.46,-30.825
3.055,0.0308,1.0742,0.3096,-38.3754,-49.0196,-0.7003,31.1,93829.0,,,,,,,
3.06,,,,,,,,,267.613,-0.08,0.226,-9.992,-0.304,522.65,-30.531
3.065,0.145,1.0596,0.2021,8.5434,-71.8487,-1.4706,31.1,93773.0,,,,,,,
3.07,,,,,,,,,266.954,-0.122,0.225,-9.99,-0.34,525.39,-30.531
3.075,0.0391,1.0669,0.2925,1.3305,-61.6246,-1.4706,31.1,93736.0,,,,,,,
3.08,,,,,,,,,266.3,-0.185,0.224,-9.99,-0.334,529.46,-30.483
3.085,0.1001,1.0767,0.2534,33.7535,-69.4678,-1.7507,31.1,93709.0,,,,,,,
3.09,,,,,,,,,265.652,-0.238,0.223,-9.989,-0.335,534.15,-30.483
3.095,0.0718,1.0518,0.2861,26.1905,-76.1905,-2.451,31.1,93645.0,,,,,,,
3.1,,,,,,,,,265.001,-0.299,0.222,-9.988,-0.308,535.56,-30.531
3.105,0.0479,1.0405,0.2534,-30.4622,-46.2885,-2.1709,31.1,93608.0,,,,,,,
3.11,,,,,,,,,264.357,-0.366,0.221,-9.986,-0.287,540.08,-30.483
3.115,0.1079,1.0596,0.27,46.6387,-85.5042,-4.2717,31.1,93577.0,,,,,,,
3.12,,,,,,,,,263.72,-0.406,0.223,-9.984,-0.315,545.04,-30.398
3.125,0.0449,1.0581,0.2275,25.8403,-83.1232,-4.2717,31.1,93522.0,,,,,,,
3.13,,,,,,,,,263.085,-0.481,0.222,-9.982,-0.277,548.32,-30.398
3.135,0.1318,1.0464,0.2754,8.8936,-71.1485,-5.1821,31.1,93479.0,,,,,,,
3.14,,,,,,,,,262.451,-0.554,0.223,-9.978,-0.257,550.72,-30.398
3.145,0.0288,1.0508,0.2666,2.2409,-66.9468,-5.2521,31.1,93434.0,,,,,,,
3.15,,,,,,,,,261.826,-0.616,0.225,-9.975,-0.251,556.39,-30.398
3.155,0.106,1.0439,0.3027,-65.6162,-32.6331,-6.2325,31.1,93406.0,,,,,,,
3.16,,,,,,,,,261.203,-0.674,0.228,-9.971,-0.251,559.68,-30.369
3.165,0.0396,1.0391,0.249,26.4706,-74.5098,-5.9524,31.1,93391.0,,,,,,,
3.17,,,,,,,,,260.584,-0.701,0.236,-9.967,-0.309,562.43,-30.246
3.175,0.1011,1.0342,0.3604,-60.4342,-42.8571,-4.6218,31.1,93341.0,,,,,,,
3.18,,,,,,,,,259.971,-0.766,0.237,-9.963,-0.288,567.31,-30.227
3.185,0.0366,1.0469,0.1699,-8.0532,-63.9356,-5.112,31.1,93329.0,,,,,,,
3.19,,,,,,,,,259.363,-0.802,0.244,-9.958,-0.342,571.13,-30.142
3.195,0.0903,1.0269,0.3271,18.4174,-75.7003,-6.5126,31.1,93285.0,,,,,,,
3.2,,,,,,,,,258.76,-0.857,0.247,-9.953,-0.35,575.13,-30.142
3.205,0.043,1.0479,0.2334,25.8403,-88.3754,-5.8123,31.1,93231.0,,,,,,,
3.21,,,,,,,,,258.158,-0.923,0.249,-9.948,-0.336,577.62,-30.142
3.215,0.0312,1.0151,0.3135,30.1821,-95.098,-5.112,31.1,93201.0,,,,,,,
3.22,,,,,,,,,257.553,-1.001,0.249,-9.941,-0.316,578.95,-30.142
3.225,0.0522,1.002,0.2104,-36.4146,-62.2549,-2.9412,31.1,93159.0,,,,,,,
3.23,,,,,,,,,256.955,-1.084,0.248,-9.933,-0.292,583.4,-30.094
3.235,0.0781,1.0234,0.3691,-15.5462,-64.7059,-2.7311,31.1,93123.0,,,,,,,
3.24,,,,,,,,,256.354,-1.137,0.253,-9.926,-0.326,584.47,-29.999
3.245,0.1079,1.0132,0.1543,-114.2157,-15.1261,-2.451,31.1,93091.0,,,,,,,
3.25,,,,,,,,,255.759,-1.192,0.255,-9.919,-0.341,588.38,-29.904
3.255,0.0698,1.0005,0.3145,-29.6919,-55.3221,-3.8515,31.1,93064.0,,,,,,,
3.26,,,,,,,,,255.172,-1.202,0.268,-9.913,-0.441,593.19,-29.762
3.265,0.0215,1.0225,0.2769,-6.3725,-71.7087,-2.521,31.1,93007.0,,,,,,,
3.27,,,,,,,,,254.587,-1.249,0.272,-9.906,-0.468,595.86,-29.696
3.275,0.0869,1.0107,0.2246,19.7479,-90.8263,-1.6106,31.1,92968.0,,,,,,,
3.28,,,,,,,,,254.007,-1.311,0.272,-9.898,-0.476,599.6,-29.677
3.285,0.0762,1.0146,0.2769,-5.8824,-72.3389,-2.381,31.1,92961.0,,,,,,,
3.29,,,,,,,,,253.431,-1.39,0.267,-9.888,-0.462,602.81,-29.534
3.295,0.1255,0.9932,0.2114,15.9664,-83.3333,-4.3417,31.1,92885.0,,,,,,,
3.3,,,,,,,,,252.857,-1.452,0.267,-9.879,-0.469,605.66,-29.525
3.305,0.0356,1.0,0.3115,13.9356,-82.9132,-4.972,31.1,92847.0,,,,,,,
3.31,,,,,,,,,252.284,-1.524,0.265,-9.868,-0.457,608.07,-29.496
3.315,0.0396,0.9814,0.208,-2.451,-72.409,-2.7311,31.1,92830.0,,,,,,,
3.32,,,,,,,,,251.72,-1.596,0.264,-9.858,-0.447,613.16,-29.449
3.325,0.1196,0.9932,0.2886,23.5294,-82.2129,-1.8207,31.1,92778.0,,,,,,,
3.33,,,,,,,,,251.159,-1.658,0.264,-9.847,-0.452,616.64,-29.449
3.335,0.0566,0.9761,0.2251,18.7675,-78.3613,-2.521,31.1,92745.0,,,,,,,
3.34,,,,,,,,,250.596,-1.729,0.259,-9.836,-0.434,617.26,-29.25
3.345,0.084,1.001,0.2612,-7.9832,-73.7395,-5.042,31.1,92699.0,,,,,,,
3.35,,,,,,,,,250.046,-1.796,0.255,-9.824,-0.42,624.05,-29.24
3.355,0.084,0.9946,0.2588,6.1625,-75.07,-5.1821,31.1,92656.0,,,,,,,
3.36,,,,,,,,,249.5,-1.859,0.258,-9.812,-0.428,627.44,-29.24
3.365,0.019,0.9697,0.2319,43.2773,-96.0784,-5.4622,31.1,92627.0,,,,,,,
3.37,,,,,,,,,248.953,-1.924,0.259,-9.8,-0.425,628.96,-29.136
3.375,0.0757,0.9746,0.2739,66.3165,-104.4118,-4.0616,31.1,92569.0,,,,,,,
3.38,,,,,,,,,248.413,-2.007,0.252,-9.785,-0.39,633.61,-29.107
3.385,0.1226,0.9771,0.2095,71.0084,-112.1148,-4.972,31.1,92534.0,,,,,,,
3.39,,,,,,,,,247.876,-2.097,0.241,-9.768,-0.336,636.56,-29.107
3.395,0.0469,0.981,0.2749,-46.3585,-53.1513,-5.1821,31.1,92501.0,,,,,,,
3.4,,,,,,,,,247.347,-2.194,0.229,-9.749,-0.277,640.67,-28.88
3.405,0.0737,0.9736,0.1738,-9.8739,-66.1765,-5.1821,31.1,92444.0,,,,,,,
3.41,,,,,,,,,246.822,-2.238,0.24,-9.738,-0.318,644.52,-28.87
3.415,-0.0132,0.9722,0.269,12.1849,-73.4594,-4.3417,31.1,92420.0,,,,,,,
3.42,,,,,,,,,246.3,-2.294,0.245,-9.724,-0.327,647.11,-28.794
3.425,0.1235,0.978,0.2197,17.507,-89.7059,-4.5518,31.1,92392.0,,,,,,,
3.43,,,,,,,,,245.787,-2.356,0.244,-9.709,-0.318,652.3,-28.775
3.435,0.0703,0.9722,0.2319,-24.7899,-64.3557,-5.6022,31.1,92372.0,,,,,,,
3.44,,,,,,,,,245.277,-2.433,0.242,-9.691,-0.305,655.44,-28.794
3.445,0.0625,0.9634,0.2632,1.2605,-72.409,-8.5434,31.1,92307.0,,,,,,,
3.45,,,,,,,,,244.769,-2.486,0.25,-9.677,-0.327,658.4,-28.747
3.455,0.042,0.9551,0.1514,53.5714,-99.4398,-9.6639,31.1,92275.0,,,,,,,
3.46,,,,,,,,,244.271,-2.547,0.255,-9.661,-0.327,663.51,-28.728
3.465,0.0059,0.9531,0.3232,25.2801,-91.6667,-6.9328,31.1,92227.0,,,,,,,
3.47,,,,,,,,,243.772,-2.632,0.248,-9.639,-0.282,665.66,-28.728
3.475,0.063,0.9775,0.1748,19.6779,-86.5546,-4.1317,31.1,92181.0,,,,,,,
3.48,,,,,,,,,243.275,-2.71,0.246,-9.618,-0.262,668.17,-28.699
3.485,0.0527,0.9624,0.2568,8.7535,-85.9944,-5.042,31.1,92189.0,,,,,,,
3.49,,,,,,,,,242.777,-2.783,0.243,-9.598,-0.248,669.96,-28.699
3.495,0.1118,0.9404,0.2031,-24.93,-75.7703,-6.5126,31.1,92132.0,,,,,,,
3.5,,,,,,,,,242.29,-2.855,0.243,-9.577,-0.242,675.8,-28.699
3.505,0.019,0.9609,0.2329,-33.1232,-71.1485,-7.3529,31.1,92099.0,,,,,,,
3.51,,,,,,,,,241.807,-2.917,0.253,-9.557,-0.263,678.67,-28.529
3.515,0.0532,0.9619,0.2788,-14.0056,-80.112,-6.6527,31.1,92079.0,,,,,,,
3.52,,,,,,,,,241.331,-2.976,0.266,-9.538,-0.291,682.98,-28.51
3.525,0.0146,0.9346,0.2007,-1.8908,-88.3053,-4.5518,31.1,92045.0,,,,,,,
3.53,,,,,,,,,240.858,-3.042,0.273,-9.517,-0.304,686.39,-28.5
3.535,0.0947,0.9468,0.2505,42.9272,-117.7871,-4.5518,31.1,92002.0,,,,,,,
3.54,,,,,,,,,240.382,-3.115,0.275,-9.493,-0.307,687.11,-28.481
3.545,0.0581,0.936,0.2207,-38.3053,-74.7199,-5.2521,31.1,91944.0,,,,,,,
3.55,,,,,,,,,239.913,-3.213,0.264,-9.461,-0.274,691.52,-28.367
3.555,0.0176,0.9424,0.2583,14.7059,-101.2605,-5.5322,31.1,91939.0,,,,,,,
3.56,,,,,,,,,239.448,-3.274,0.278,-9.439,-0.307,694.48,-28.329
3.565,0.0293,0.9448,0.2495,-70.028,-62.465,-4.4118,31.1,91899.0,,,,,,,
3.57,,,,,,,,,238.983,-3.358,0.275,-9.41,-0.296,696.28,-28.206
3.575,0.0566,0.9238,0.209,38.0252,-112.605,-5.042,31.1,91849.0,,,,,,,
3.58,,,,,,,,,238.521,-3.407,0.298,-9.39,-0.355,699.34,-28.168
3.585,0.0864,0.9341,0.2749,25.9104,-111.6947,-5.3922,31.1,91814.0,,,,,,,
3.59,,,,,,,,,238.065,-3.5,0.287,-9.357,-0.326,703.21,-28.121
3.595,0.0215,0.9419,0.2446,49.5098,-112.7451,-5.4622,31.1,91800.0,,,,,,,
3.6,,,,,,,,,237.618,-3.592,0.281,-9.323,-0.307,708.43,-28.121
3.605,0.0332,0.936,0.2402,59.5238,-128.3613,-4.6919,31.1,91749.0,,,,,,,
3.61,,,,,,,,,237.167,-3.684,0.267,-9.288,-0.268,708.88,-28.111
3.615,0.0645,0.9424,0.269,3.2913,-91.2465,-4.2717,31.1,91738.0,,,,,,,
3.62,,,,,,,,,236.721,-3.789,0.248,-9.248,-0.222,712.48,-27.997
3.625,0.0557,0.9082,0.2417,-12.9552,-93.4174,-5.8824,31.1,91697.0,,,,,,,
3.63,,,,,,,,,236.281,-3.863,0.249,-9.217,-0.221,716.99,-28.111
3.635,0.0645,0.9312,0.229,-37.0448,-81.5826,-7.7731,31.1,91667.0,,,,,,,
3.64,,,,,,,,,235.846,-3.937,0.257,-9.185,-0.232,720.15,-27.997
3.645,0.0171,0.9077,0.2627,-11.4146,-91.3165,-7.7031,31.1,91630.0,,,,,,,
3.65,,,,,,,,,235.408,-4.002,0.274,-9.156,-0.262,721.41,-27.997
3.655,0.0601,0.9136,0.1846,8.3333,-102.8011,-6.5126,31.1,91582.0,,,,,,,
3.66,,,,,,,,,234.978,-4.074,0.282,-9.123,-0.271,726.01,-27.959
3.665,0.0361,0.9175,0.2603,9.0336,-102.7311,-6.0224,31.1,91536.0,,,,,,,
3.67,,,,,,,,,234.545,-4.156,0.282,-9.086,-0.266,727.0,-27.903
3.675,0.0859,0.8984,0.2007,47.619,-127.0308,-8.3333,31.1,91496.0,,,,,,,
3.68,,,,,,,,,234.118,-4.237,0.281,-9.049,-0.26,730.7,-27.903
3.685,-0.0239,0.9214,0.2603,19.2577,-107.0028,-7.7731,31.1,91481.0,,,,,,,
3.69,,,,,,,,,233.694,-4.339,0.267,-9.002,-0.223,733.41,-27.637
3.695,0.1001,0.8945,0.1772,5.2521,-106.0224,-7.6331,31.1,91436.0,,,,,,,
3.7,,,,,,,,,233.275,-4.423,0.264,-8.962,-0.208,736.75,-27.637
3.705,0.0605,0.8862,0.2144,-9.1737,-98.1092,-6.2325,31.1,91387.0,,,,,,,
3.71,,,,,,,,,232.864,-4.506,0.267,-8.92,-0.204,741.08,-27.561
3.715,0.0493,0.9004,0.2158,44.3978,-120.2381,-7.1429,31.1,91374.0,,,,,,,
3.72,,,,,,,,,232.459,-4.581,0.273,-8.881,-0.212,745.24,-27.457
3.725,0.0981,0.9004,0.2256,2.7311,-96.0784,-7.563,31.1,91307.0,,,,,,,
3.73,,,,,,,,,232.06,-4.675,0.259,-8.833,-0.178,748.86,-27.447
3.735,0.0698,0.9082,0.2505,-2.1008,-96.1485,-6.1625,31.1,91318.0,,,,,,,
3.74,,,,,,,,,231.659,-4.749,0.262,-8.794,-0.176,750.21,-27.305
3.745,0.0039,0.9141,0.1362,-18.2073,-93.6975,-5.3221,31.1,91215.0,,,,,,,
3.75,,,,,,,,,231.265,-4.823,0.267,-8.754,-0.178,754.28,-27.305
3.755,0.0962,0.8833,0.2417,18.8375,-104.2717,-6.3725,31.1,91246.0,,,,,,,
3.76,,,,,,,,,230.878,-4.893,0.277,-8.714,-0.193,758.71,-27.305
3.765,-0.0171,0.9165,0.2227,-15.9664,-100.7003,-5.3221,31.1,91181.0,,,,,,,
3.77,,,,,,,,,230.488,-4.973,0.272,-8.669,-0.179,759.89,-27.305
3.775,0.0908,0.8945,0.249,19.2577,-117.507,-5.9524,31.1,91150.0,,,,,,,
3.78,,,,,,,,,230.107,-5.048,0.282,-8.625,-0.192,764.96,-27.305
3.785,0.0171,0.9189,0.2231,49.8599,-131.7227,-5.9524,31.1,91148.0,,,,,,,
3.79,,,,,,,,,229.723,-5.137,0.276,-8.573,-0.178,765.95,-27.305
3.795,0.0557,0.9062,0.1377,-14.1457,-100.3501,-6.5126,31.1,91119.0,,,,,,,
3.8,,,,,,,,,229.349,-5.236,0.257,-8.514,-0.142,771.48,-27.305
3.805,0.0479,0.8936,0.3262,-30.4622,-97.8291,-6.9328,31.1,91057.0,,,,,,,
3.81,,,,,,,,,228.977,-5.31,0.267,-8.467,-0.153,774.29,-27.419
3.815,0.0674,0.8853,0.1299,76.0504,-143.1373,-8.0532,31.1,91001.0,,,,,,,
3.82,,,,,,,,,228.607,-5.381,0.285,-8.421,-0.175,777.37,-27.419
3.825,0.0498,0.8926,0.333,69.1877,-145.7983,-8.4734,31.1,90983.0,,,,,,,
3.83,,,,,,,,,228.24,-5.488,0.253,-8.354,-0.12,780.18,-27.419
3.835,0.0469,0.9053,0.1313,-27.591,-94.1176,-5.8123,31.1,90969.0,,,,,,,
3.84,,,,,,,,,227.869,-5.595,0.225,-8.284,-0.07,780.36,-27.191
3.845,0.0552,0.9058,0.3018,-78.3613,-78.0812,-5.3221,31.1,90910.0,,,,,,,
3.85,,,,,,,,,227.499,-5.662,0.242,-8.238,-0.089,782.99,-27.191
3.855,0.0952,0.8892,0.2314,-29.6919,-89.916,-6.0224,31.1,90898.0,,,,,,,
3.86,,,,,,,,,227.139,-5.716,0.284,-8.198,-0.145,788.62,-27.4
3.865,0.0107,0.896,0.2363,6.8627,-113.3754,-7.2129,31.1,90870.0,,,,,,,
3.87,,,,,,,,,226.789,-5.779,0.303,-8.153,-0.167,793.7,-27.191
3.875,0.0923,0.897,0.2446,4.6218,-115.4762,-8.1933,31.1,90811.0,,,,,,,
3.88,,,,,,,,,226.438,-5.86,0.303,-8.095,-0.162,795.34,-27.219
3.885,0.0459,0.8774,0.1895,19.8179,-127.9412,-8.8235,31.1,90819.0,,,,,,,
3.89,,,,,,,,,226.085,-5.941,0.305,-8.036,-0.158,796.61,-27.219
3.895,0.0449,0.8745,0.311,21.7787,-121.9888,-8.3333,31.1,90763.0,,,,,,,
3.9,,,,,,,,,225.742,-6.031,0.3,-7.969,-0.144,801.97,-27.172
3.905,0.084,0.8716,0.2056,-23.3193,-98.6695,-7.493,31.1,90710.0,,,,,,,
3.91,,,,,,,,,225.396,-6.116,0.293,-7.904,-0.128,803.06,-27.153
3.915,0.0435,0.874,0.2749,-65.4762,-79.902,-7.8431,31.1,90683.0,,,,,,,
3.92,,,,,,,,,225.051,-6.183,0.309,-7.851,-0.144,805.6,-27.153
3.925,0.105,0.8643,0.1963,36.9748,-134.3838,-8.7535,31.1,90644.0,,,,,,,
3.93,,,,,,,,,224.715,-6.236,0.349,-7.807,-0.187,810.24,-27.087
3.935,0.0127,0.8525,0.2261,-13.0252,-104.7619,-8.1933,31.1,90627.0,,,,,,,
3.94,,,,,,,,,224.377,-6.328,0.333,-7.734,-0.162,810.97,-26.859
3.945,0.0864,0.8267,0.2002,35.2241,-127.8711,-8.8235,31.1,90595.0,,,,,,,
3.95,,,,,,,,,224.046,-6.398,0.345,-7.675,-0.17,815.34,-26.802
3.955,0.0161,0.8511,0.252,35.5742,-129.2017,-8.9636,31.1,90546.0,,,,,,,
3.96,,,,,,,,,223.724,-6.484,0.33,-7.604,-0.146,820.16,-26.792
3.965,0.0386,0.8477,0.1777,9.1036,-116.2465,-9.1036,31.1,90490.0,,,,,,,
3.97,,,,,,,,,223.403,-6.57,0.314,-7.53,-0.122,822.62,-26.745
3.975,0.0522,0.8301,0.2183,-17.7171,-94.1176,-8.9636,31.1,90484.0,,,,,,,
3.98,,,,,,,,,223.089,-6.646,0.314,-7.463,-0.114,826.17,-26.603
3.985,0.0034,0.853,0.2095,-8.4734,-100.4902,-9.4538,31.1,90456.0,,,,,,,
3.99,,,,,,,,,222.774,-6.707,0.329,-7.408,-0.124,827.72,-26.375
3.995,0.0923,0.8521,0.1396,14.0056,-116.7367,-10.9244,31.1,90447.0,,,,,,,
4.0,,,,,,,,,222.463,-6.771,0.34,-7.349,-0.128,830.64,-26.375
4.005,-0.0562,0.8491,0.2896,-4.6218,-102.3109,-8.8235,31.1,90384.0,,,,,,,
4.01,,,,,,,,,222.158,-6.846,0.338,-7.279,-0.116,835.1,-26.366
4.015,0.0757,0.8511,0.1406,15.7563,-112.605,-9.0336,31.1,90330.0,,,,,,,
4.02,,,,,,,,,221.863,-6.91,0.345,-7.218,-0.118,840.21,-26.347
4.025,-0.0039,0.8442,0.2227,26.5406,-117.3669,-8.5434,31.1,90299.0,,,,,,,
4.03,,,,,,,,,221.563,-6.981,0.341,-7.15,-0.107,840.76,-26.347
4.035,0.1099,0.8237,0.1294,33.4034,-122.619,-10.4342,31.1,90245.0,,,,,,,
4.04,,,,,,,,,221.265,-7.055,0.329,-7.078,-0.089,843.31,-26.309
4.045,-0.0601,0.8267,0.251,65.4762,-138.5854,-9.4538,31.1,90221.0,,,,,,,
4.05,,,,,,,,,220.963,-7.131,0.314,-7.002,-0.066,844.13,-26.309
4.055,0.0195,0.8394,0.1621,26.0504,-126.2605,-7.9132,31.1,90182.0,,,,,,,
4.06,,,,,,,,,220.672,-7.217,0.279,-6.916,-0.025,849.88,-26.28
4.065,0.0298,0.8457,0.1797,-47.619,-89.6359,-5.5322,31.1,90168.0,,,,,,,
4.07,,,,,,,,,220.39,-7.293,0.268,-6.836,-0.008,854.81,-26.214
4.075,0.0312,0.8369,0.1499,-36.0644,-95.4482,-6.3725,31.1,90130.0,,,,,,,
4.08,,,,,,,,,220.111,-7.345,0.302,-6.778,-0.035,857.65,-26.242
4.085,0.0073,0.8315,0.2192,-13.0952,-109.6639,-6.9328,31.1,90097.0,,,,,,,
4.09,,,,,,,,,219.84,-7.4,0.328,-6.717,-0.056,862.58,-26.214
4.095,-0.0146,0.8345,0.2134,-30.112,-92.507,-5.8123,31.1,90064.0,,,,,,,
4.1,,,,,,,,,219.57,-7.463,0.341,-6.645,-0.063,864.78,-26.119
4.105,0.0386,0.8228,0.1494,-9.5238,-110.7143,-6.0224,31.1,90030.0,,,,,,,
4.11,,,,,,,,,219.305,-7.516,0.364,-6.585,-0.08,868.34,-26.071
4.115,0.0317,0.8037,0.1807,18.1373,-123.1092,-6.5126,31.1,89998.0,,,,,,,
4.12,,,,,,,,,219.038,-7.579,0.373,-6.512,-0.086,869.63,-26.024
4.125,0.0483,0.8149,0.1904,21.5686,-120.3782,-6.6527,31.1,89947.0,,,,,,,
4.13,,,,,,,,,218.775,-7.649,0.364,-6.43,-0.076,873.1,-25.967
4.135,-0.0044,0.8223,0.2153,-15.1961,-99.6499,-5.3221,31.1,89946.0,,,,,,,
4.14,,,,,,,,,218.515,-7.716,0.353,-6.35,-0.064,876.12,-25.967
4.145,0.0371,0.812,0.144,-3.3613,-94.8179,-3.7115,31.1,89886.0,,,,,,,
4.15,,,,,,,,,218.258,-7.771,0.366,-6.282,-0.072,879.14,-25.967
4.155,0.0469,0.8271,0.2192,35.3641,-118.4174,-4.4118,31.1,89881.0,,,,,,,
4.16,,,,,,,,,218.005,-7.822,0.371,-6.218,-0.075,882.26,-25.796
4.165,0.0371,0.8223,0.1724,-12.1148,-96.3585,-5.4622,31.1,89794.0,,,,,,,
4.17,,,,,,,,,217.754,-7.887,0.349,-6.137,-0.058,885.19,-25.796
4.175,0.0723,0.8066,0.189,28.0112,-118.2773,-7.7031,31.1,89786.0,,,,,,,
4.18,,,,,,,,,217.512,-7.938,0.36,-6.07,-0.064,889.86,-25.787
4.185,-0.0073,0.8164,0.2139,37.8852,-123.8095,-6.4426,31.1,89785.0,,,,,,,
4.19,,,,,,,,,217.262,-8.001,0.344,-5.988,-0.048,889.96,-25.787
4.195,0.0498,0.811,0.1328,9.3838,-111.8347,-4.6919,31.1,89735.0,,,,,,,
4.2,,,,,,,,,217.024,-8.066,0.321,-5.901,-0.028,895.46,-25.673
4.205,0.0308,0.8145,0.2607,-15.5462,-96.1485,-3.8515,31.1,89702.0,,,,,,,
4.21,,,,,,,,,216.781,-8.123,0.317,-5.822,-0.024,895.91,-25.645
4.215,0.0771,0.7974,0.1709,-23.4594,-91.0364,-6.3725,31.1,89692.0,,,,,,,
4.22,,,,,,,,,216.556,-8.171,0.33,-5.754,-0.032,903.9,-25.645
4.225,0.0352,0.7944,0.1865,-33.8936,-82.3529,-7.7731,31.1,89642.0,,,,,,,
4.23,,,,,,,,,216.327,-8.216,0.351,-5.689,-0.043,904.63,-25.635
4.235,0.0259,0.7988,0.2114,21.2185,-107.2129,-7.9132,31.1,89624.0,,,,,,,
4.24,,,,,,,,,216.091,-8.255,0.379,-5.629,-0.057,904.72,-25.588
4.245,0.0215,0.792,0.1338,1.9608,-94.1176,-5.8824,31.1,89580.0,,,,,,,
4.25,,,,,,,,,215.863,-8.308,0.368,-5.552,-0.045,909.31,-25.569
4.255,0.0376,0.8013,0.2339,-24.5098,-80.8824,-5.2521,31.1,89547.0,,,,,,,
4.26,,,,,,,,,215.638,-8.353,0.369,-5.484,-0.043,912.35,-25.483
4.265,0.0854,0.7964,0.1611,4.7619,-95.7983,-7.0728,31.1,89502.0,,,,,,,
4.27,,,,,,,,,215.41,-8.391,0.39,-5.424,-0.055,913.26,-25.379
4.275,0.0273,0.7959,0.2202,-1.9608,-86.8347,-8.4034,31.1,89432.0,,,,,,,
4.28,,,,,,,,,215.19,-8.436,0.39,-5.354,-0.051,917.86,-25.331
4.285,0.0205,0.7974,0.167,3.0112,-89.8459,-8.0532,31.1,89429.0,,,,,,,
4.29,,,,,,,,,214.969,-8.476,0.395,-5.29,-0.049,919.51,-25.303
4.295,0.0073,0.7871,0.1792,31.5126,-103.4314,-6.5126,31.1,89377.0,,,,,,,
4.3,,,,,,,,,214.753,-8.517,0.397,-5.223,-0.046,923.56,-25.303
4.305,0.0708,0.791,0.2036,-23.7395,-78.9916,-6.3725,31.1,89360.0,,,,,,,
4.31,,,,,,,,,214.54,-8.565,0.377,-5.146,-0.031,926.59,-25.284
4.315,0.0518,0.791,0.1387,-18.9076,-79.7619,-7.9832,31.1,89332.0,,,,,,,
4.32,,,,,,,,,214.333,-8.599,0.397,-5.087,-0.04,930.73,-25.275
4.325,0.0005,0.7705,0.2114,25.3501,-99.2997,-9.1036,31.1,89288.0,,,,,,,
4.33,,,,,,,,,214.139,-8.634,0.415,-5.027,-0.045,937.18,-25.275
4.335,0.0156,0.7944,0.1602,22.3389,-107.1429,-6.6527,31.1,89260.0,,,,,,,
4.34,,,,,,,,,213.94,-8.678,0.401,-4.952,-0.032,937.46,-25.199
4.345,0.04,0.7788,0.126,6.4426,-97.479,-4.4818,31.1,89237.0,,,,,,,
4.35,,,,,,,,,213.748,-8.724,0.387,-4.87,-0.021,942.25,-25.246
4.355,0.0166,0.7822,0.2471,72.1989,-124.2997,-5.1821,31.1,89180.0,,,,,,,
4.36,,,,,,,,,213.554,-8.766,0.384,-4.796,-0.019,943.81,-25.18
4.365,0.0811,0.7827,0.1162,-1.0504,-95.5182,-6.0224,31.1,89182.0,,,,,,,
4.37,,,,,,,,,213.361,-8.819,0.331,-4.701,0.01,946.39,-25.18
4.375,-0.002,0.7671,0.1895,15.1261,-96.2885,-6.5826,31.0,89146.0,,,,,,,
4.38,,,,,,,,,213.175,-8.858,0.335,-4.627,0.01,950.45,-25.104
4.385,0.0327,0.7778,0.1665,9.5938,-96.3585,-6.0924,31.1,89113.0,,,,,,,
4.39,,,,,,,,,212.99,-8.897,0.327,-4.552,0.018,953.03,-25.018
4.395,0.0098,0.7661,0.1719,7.1429,-100.2801,-5.2521,31.1,89113.0,,,,,,,
4.4,,,,,,,,,212.805,-8.935,0.323,-4.477,0.023,955.15,-25.009
4.405,0.0522,0.7773,0.1631,17.2269,-110.7143,-6.0924,31.1,89062.0,,,,,,,
4.41,,,,,,,,,212.63,-8.974,0.32,-4.399,0.027,960.23,-24.942
4.415,0.0176,0.7739,0.2217,-25.1401,-85.2241,-6.2325,31.1,89007.0,,,,,,,
4.42,,,,,,,,,212.448,-9.016,0.31,-4.312,0.035,960.41,-24.923
4.425,0.0464,0.7642,0.1445,9.944,-99.1597,-6.5126,31.1,88976.0,,,,,,,
4.43,,,,,,,,,212.268,-9.047,0.333,-4.245,0.027,963.55,-24.923
4.435,0.0161,0.7773,0.1729,16.7367,-101.8908,-6.4426,31.1,88971.0,,,,,,,
4.44,,,,,,,,,212.091,-9.084,0.328,-4.167,0.033,966.6,-24.914
4.445,0.0508,0.7788,0.2334,18.2073,-108.1933,-6.5126,31.1,88924.0,,,,,,,
4.45,,,,,,,,,211.907,-9.121,0.318,-4.086,0.041,966.6,-24.914
4.455,-0.0215,0.7856,0.1123,-5.6022,-94.6078,-4.8319,31.1,88911.0,,,,,,,
4.46,,,,,,,,,211.731,-9.159,0.307,-3.999,0.049,971.31,-24.914
4.465,0.0767,0.7681,0.2617,-37.3249,-84.5938,-5.042,31.1,88868.0,,,,,,,
4.47,,,,,,,,,211.563,-9.192,0.314,-3.924,0.048,976.39,-24.914
4.475,0.0107,0.7769,0.1138,-21.7787,-85.2241,-4.972,31.1,88824.0,,,,,,,
4.48,,,,,,,,,211.397,-9.219,0.347,-3.856,0.036,979.26,-24.914
4.485,0.0723,0.7705,0.2285,-2.7311,-96.7787,-6.6527,31.1,88821.0,,,,,,,
4.49,,,,,,,,,211.225,-9.247,0.367,-3.787,0.03,979.72,-24.904
4.495,-0.0562,0.769,0.1748,18.4174,-106.5126,-5.3922,31.1,88789.0,,,,,,,
4.5,,,,,,,,,211.06,-9.278,0.372,-3.709,0.031,984.07,-24.904
4.505,0.064,0.7451,0.2026,23.5294,-108.9636,-5.4622,31.1,88730.0,,,,,,,
4.51,,,,,,,,,210.891,-9.313,0.36,-3.623,0.037,985.27,-24.848
4.515,0.0356,0.7749,0.1606,21.0084,-103.9216,-5.1821,31.1,88699.0,,,,,,,
4.52,,,,,,,,,210.729,-9.348,0.344,-3.534,0.045,989.25,-24.781
4.525,0.0361,0.7637,0.1929,-1.6807,-95.1681,-6.0224,31.1,88678.0,,,,,,,
4.53,,,,,,,,,210.571,-9.38,0.329,-3.449,0.052,993.33,-24.867
4.535,0.0635,0.7446,0.1299,-19.6779,-84.8039,-6.3025,31.1,88637.0,,,,,,,
4.54,,,,,,,,,210.408,-9.408,0.333,-3.371,0.053,993.6,-24.781
4.545,-0.0371,0.7505,0.2354,-9.4538,-88.0952,-6.5126,31.1,88592.0,,,,,,,
4.55,,,,,,,,,210.246,-9.432,0.352,-3.301,0.05,996.57,-24.753
4.555,0.1162,0.751,0.1348,-4.6919,-93.9776,-6.7927,31.1,88590.0,,,,,,,
4.56,,,,,,,,,210.095,-9.457,0.363,-3.229,0.049,1002.03,-24.734
4.565,-0.0181,0.7441,0.1777,-14.1457,-82.9832,-6.4426,31.0,88520.0,,,,,,,
4.57,,,,,,,,,209.947,-9.482,0.37,-3.151,0.05,1004.91,-24.648
4.575,0.0439,0.7407,0.1079,2.9412,-90.2661,-6.0224,31.1,88518.0,,,,,,,
4.58,,,,,,,,,209.799,-9.504,0.384,-3.083,0.048,1006.85,-24.402
4.585,-0.0005,0.7471,0.2271,-17.9272,-90.2661,-5.8123,31.1,88481.0,,,,,,,
4.59,,,,,,,,,209.657,-9.528,0.385,-3.008,0.051,1010.66,-24.392
4.595,0.0479,0.7461,0.1484,10.7143,-93.6275,-6.1625,31.1,88455.0,,,,,,,
4.6,,,,,,,,,209.52,-9.551,0.402,-2.933,0.047,1014.83,-24.326
4.605,0.0454,0.7344,0.1538,14.7759,-97.8992,-7.563,31.1,88423.0,,,,,,,
4.61,,,,,,,,,209.377,-9.575,0.396,-2.854,0.051,1015.02,-24.326
4.615,-0.0044,0.7251,0.1748,-14.986,-87.0448,-7.7031,31.1,88394.0,,,,,,,
4.62,,,,,,,,,209.247,-9.599,0.387,-2.772,0.058,1021.52,-24.307
4.625,0.0361,0.7378,0.1318,-25.4202,-81.5126,-6.2325,31.1,88337.0,,,,,,,
4.63,,,,,,,,,209.11,-9.62,0.402,-2.699,0.057,1021.7,-24.278
4.635,0.0127,0.7524,0.2139,7.9132,-96.2185,-5.3922,31.1,88339.0,,,,,,,
4.64,,,,,,,,,208.977,-9.637,0.426,-2.631,0.053,1025.14,-24.269
4.645,0.0889,0.7461,0.1436,13.0952,-101.6106,-7.2129,31.0,88292.0,,,,,,,
4.65,,,,,,,,,208.844,-9.659,0.422,-2.55,0.055,1027.55,-24.269
4.655,0.0039,0.7314,0.1157,2.6611,-94.6779,-7.8431,31.1,88237.0,,,,,,,
4.66,,,,,,,,,208.713,-9.682,0.413,-2.464,0.06,1030.53,-24.269
4.665,0.0132,0.7441,0.1934,-14.4258,-87.1148,-7.2829,31.0,88263.0,,,,,,,
4.67,,,,,,,,,208.583,-9.702,0.414,-2.384,0.064,1033.22,-24.202
4.675,0.0342,0.7427,0.1792,28.8515,-107.2129,-7.423,31.1,88164.0,,,,,,,
4.68,,,,,,,,,208.462,-9.719,0.429,-2.31,0.063,1038.34,-24.269
4.685,0.0049,0.7285,0.1294,28.5714,-105.6022,-6.5126,31.1,88176.0,,,,,,,
4.69,,,,,,,,,208.333,-9.741,0.407,-2.219,0.071,1038.52,-24.24
4.695,0.0732,0.709,0.1514,37.1148,-113.5154,-6.9328,31.1,88153.0,,,,,,,
4.7,,,,,,,,,208.212,-9.762,0.386,-2.129,0.078,1042.71,-24.146
4.705,0.0156,0.7354,0.1421,-11.9048,-91.7367,-6.3025,31.1,88116.0,,,,,,,
4.71,,,,,,,,,208.091,-9.784,0.357,-2.032,0.087,1045.41,-24.146
4.715,0.0337,0.731,0.1904,-22.619,-85.9244,-6.0924,31.1,88046.0,,,,,,,
4.72,,,,,,,,,207.97,-9.799,0.369,-1.954,0.087,1047.83,-24.146
4.725,0.0327,0.731,0.1401,-53.7115,-67.2969,-5.8824,31.1,88030.0,,,,,,,
4.73,,,,,,,,,207.86,-9.813,0.391,-1.88,0.085,1053.51,-24.098
4.735,0.0132,0.7319,0.1514,23.9496,-113.7955,-6.6527,31.1,87996.0,,,,,,,
4.74,,,,,,,,,207.747,-9.822,0.439,-1.823,0.078,1054.63,-24.022
4.745,0.0386,0.728,0.147,-9.8039,-96.1485,-5.5322,31.1,88027.0,,,,,,,
4.75,,,,,,,,,207.63,-9.84,0.421,-1.725,0.083,1055.65,-24.022
4.755,0.0425,0.7139,0.2275,-37.0448,-79.1317,-5.3221,31.1,87967.0,,,,,,,
4.76,,,,,,,,,207.516,-9.854,0.432,-1.643,0.083,1059.1,-24.013
4.765,-0.0142,0.73,0.1274,16.3165,-104.2017,-6.0924,31.1,87900.0,,,,,,,
4.77,,,,,,,,,207.414,-9.863,0.466,-1.575,0.079,1065.63,-24.013
4.775,0.0669,0.7236,0.1738,-4.0616,-94.2577,-5.3221,31.1,87900.0,,,,,,,
4.78,,,,,,,,,207.31,-9.878,0.454,-1.485,0.082,1067.12,-23.994
4.785,-0.0161,0.7148,0.1587,-26.8207,-81.9328,-4.4118,31.1,87877.0,,,,,,,
4.79,,,,,,,,,207.199,-9.889,0.46,-1.404,0.082,1067.4,-23.994
4.795,0.0918,0.7085,0.1621,2.0308,-98.8095,-5.6022,31.1,87832.0,,,,,,,
4.8,,,,,,,,,207.09,-9.898,0.485,-1.333,0.078,1070.29,-23.994
4.805,0.0239,0.728,0.1792,10.084,-103.5714,-6.1625,31.1,87796.0,,,,,,,
4.81,,,,,,,,,206.982,-9.909,0.485,-1.248,0.079,1073.0,-23.956
4.815,0.0405,0.7129,0.1182,-4.2717,-95.7983,-6.9328,31.1,87789.0,,,,,,,
4.82,,,,,,,,,206.886,-9.92,0.478,-1.158,0.081,1079.25,-23.956
4.825,-0.0029,0.709,0.1992,-21.5686,-92.0868,-6.5826,31.1,87728.0,,,,,,,
4.83,,,,,,,,,206.783,-9.929,0.484,-1.075,0.082,1079.25,-23.87
4.835,0.022,0.7173,0.1553,10.6443,-110.1541,-6.8627,31.1,87696.0,,,,,,,
4.84,,,,,,,,,206.681,-9.937,0.505,-0.995,0.082,1081.4,-23.7
4.845,0.0498,0.7139,0.1699,30.3922,-117.0168,-5.8824,31.1,87699.0,,,,,,,
4.85,,,,,,,,,206.585,-9.946,0.498,-0.9,0.083,1085.61,-23.7
4.855,0.0449,0.6997,0.1401,14.4958,-110.2941,-7.1429,31.1,87672.0,,,,,,,
4.86,,,,,,,,,206.491,-9.956,0.474,-0.798,0.085,1088.97,-23.7
4.865,0.019,0.6948,0.1597,36.5546,-114.2157,-7.9832,31.1,87622.0,,,,,,,
4.87,,,,,,,,,206.392,-9.964,0.463,-0.702,0.088,1089.62,-23.681
4.875,0.041,0.7183,0.1313,7.0028,-101.1905,-5.6022,31.1,87592.0,,,,,,,
4.88,,,,,,,,,206.303,-9.971,0.433,-0.602,0.092,1095.33,-23.662
4.885,0.0293,0.6895,0.1685,4.1317,-98.3193,-5.6022,31.1,87575.0,,,,,,,
4.89,,,,,,,,,206.216,-9.977,0.429,-0.514,0.093,1098.04,-23.662
4.895,0.0713,0.7036,0.1533,1.4706,-100.4902,-6.7927,31.1,87514.0,,,,,,,
4.9,,,,,,,,,206.121,-9.981,0.427,-0.428,0.094,1098.32,-23.662
4.905,-0.0107,0.6987,0.1597,-13.0952,-90.056,-6.6527,31.1,87498.0,,,,,,,
4.91,,,,,,,,,206.027,-9.984,0.428,-0.341,0.096,1100.57,-23.586
4.915,0.0347,0.7051,0.1616,-1.4706,-96.2185,-5.7423,31.1,87476.0,,,,,,,
4.92,,,,,,,,,205.94,-9.986,0.441,-0.262,0.098,1105.25,-23.481
4.925,0.0737,0.7031,0.1396,-0.7003,-97.1989,-6.1625,31.1,87443.0,,,,,,,
4.93,,,,,,,,,205.855,-9.988,0.444,-0.179,0.099,1108.06,-23.481
4.935,0.0371,0.689,0.1187,18.4874,-106.8627,-7.2829,31.1,87407.0,,,,,,,
4.94,,,,,,,,,205.767,-9.989,0.446,-0.094,0.101,1109.65,-23.472
4.945,0.0293,0.6855,0.1655,7.7731,-102.591,-7.8431,31.1,87392.0,,,,,,,
4.95,,,,,,,,,205.69,-9.99,0.432,-0.001,0.103,1115.37,-23.405
4.955,0.0288,0.6914,0.1543,-34.1036,-80.8824,-6.7927,31.1,87337.0,,,,,,,
4.96,,,,,,,,,205.61,-9.989,0.427,0.088,0.105,1116.86,-23.387
4.965,0.0474,0.7041,0.103,-35.7843,-82.423,-5.7423,31.1,87337.0,,,,,,,
4.97,,,,,,,,,205.529,-9.987,0.458,0.158,0.108,1118.93,-23.387
4.975,0.0259,0.6875,0.1367,1.2605,-101.8908,-6.2325,31.0,87288.0,,,,,,,
4.98,,,,,,,,,205.45,-9.984,0.491,0.23,0.11,1122.02,-23.387
4.985,0.1001,0.6821,0.1089,4.4118,-107.493,-7.2129,31.1,87261.0,,,,,,,
4.99,,,,,,,,,205.373,-9.982,0.491,0.319,0.111,1125.4,-23.387
4.995,-0.0068,0.7002,0.1919,-3.0112,-102.3109,-7.423,31.1,87245.0,,,,,,,
5.0,,,,,,,,,205.295,-9.978,0.489,0.412,0.113,1126.8,-23.244
5.005,0.103,0.6665,0.123,9.1737,-110.084,-6.6527,31.0,87205.0,,,,,,,
5.01,,,,,,,,,205.225,-9.974,0.493,0.501,0.115,1131.97,-23.244
5.015,0.0088,0.6836,0.1191,-0.7003,-105.6723,-5.042,31.1,87184.0,,,,,,,
5.02,,,,,,,,,205.147,-9.969,0.487,0.597,0.115,1131.97,-23.197
5.025,0.1162,0.6943,0.123,4.902,-111.6246,-5.3221,31.1,87130.0,,,,,,,
5.03,,,,,,,,,205.077,-9.963,0.489,0.689,0.115,1136.57,-23.168
5.035,0.0386,0.6802,0.1934,4.2017,-112.465,-6.3025,31.1,87078.0,,,,,,,
5.04,,,,,,,,,205.007,-9.956,0.486,0.786,0.114,1139.1,-23.168
5.045,0.0679,0.6777,0.0718,-6.8627,-112.1849,-6.6527,31.1,87069.0,,,,,,,
5.05,,,,,,,,,204.934,-9.948,0.484,0.884,0.115,1140.61,-23.168
5.055,0.0586,0.6714,0.1738,2.381,-117.0168,-6.4426,31.1,87073.0,,,,,,,
5.06,,,,,,,,,204.865,-9.938,0.491,0.981,0.116,1144.37,-23.092
5.065,0.0498,0.6763,0.126,-6.5126,-107.493,-5.112,31.0,87017.0,,,,,,,
5.07,,,,,,,,,204.795,-9.928,0.491,1.083,0.116,1146.34,-23.064
5.075,0.0596,0.6924,0.1606,-8.1232,-112.9552,-4.8319,31.1,87001.0,,,,,,,
5.08,,,,,,,,,204.734,-9.917,0.498,1.176,0.117,1151.42,-23.026
5.085,0.0679,0.6846,0.1431,34.2437,-129.972,-5.042,31.1,86968.0,,,,,,,
5.09,,,,,,,,,204.679,-9.904,0.506,1.273,0.117,1156.31,-23.026
5.095,0.0903,0.6802,0.1431,24.6499,-123.7395,-6.1625,31.1,86961.0,,,,,,,
5.1,,,,,,,,,204.619,-9.891,0.478,1.386,0.111,1156.78,-23.026
5.105,0.0186,0.688,0.1226,2.1008,-119.7479,-7.1429,31.1,86921.0,,,,,,,
5.11,,,,,,,,,204.552,-9.876,0.458,1.493,0.108,1157.16,-23.026
5.115,0.0645,0.6733,0.165,10.9944,-125.1401,-7.3529,31.1,86884.0,,,,,,,
5.12,,,,,,,,,204.492,-9.86,0.457,1.596,0.109,1162.05,-23.026
5.125,0.042,0.6782,0.1587,-4.4818,-115.4062,-6.3025,31.1,86858.0,,,,,,,
5.13,,,,,,,,,204.43,-9.842,0.449,1.704,0.109,1163.56,-23.026
5.135,0.082,0.6738,0.1514,3.0112,-123.3894,-7.2829,31.1,86837.0,,,,,,,
5.14,,,,,,,,,204.369,-9.824,0.454,1.803,0.111,1166.67,-22.988
5.145,0.0615,0.6724,0.1396,-25.8403,-112.1148,-8.1933,31.1,86856.0,,,,,,,
5.15,,,,,,,,,204.303,-9.805,0.452,1.909,0.111,1167.33,-22.988
5.155,0.0532,0.6641,0.1445,-34.7339,-107.8431,-8.9636,31.1,86793.0,,,,,,,
5.16,,,,,,,,,204.241,-9.784,0.475,2.004,0.118,1171.1,-22.988
5.165,0.0454,0.6772,0.165,-11.7647,-117.2269,-9.0336,31.1,86751.0,,,,,,,
5.17,,,,,,,,,204.182,-9.763,0.504,2.096,0.127,1174.58,-22.988
5.175,0.0635,0.6616,0.1499,-22.8992,-116.9468,-9.3137,31.1,86733.0,,,,,,,
5.18,,,,,,,,,204.123,-9.741,0.515,2.196,0.132,1177.04,-22.969
5.185,0.0625,0.6484,0.1377,10.2941,-128.3613,-9.5938,31.1,86703.0,,,,,,,
5.19,,,,,,,,,204.058,-9.717,0.535,2.295,0.139,1177.22,-22.903
5.195,0.0986,0.6587,0.1611,45.7283,-145.028,-11.1345,31.1,86673.0,,,,,,,
5.2,,,,,,,,,203.99,-9.691,0.526,2.404,0.139,1179.01,-22.893
5.205,0.0088,0.6694,0.1387,12.395,-129.6919,-9.5938,31.1,86629.0,,,,,,,
5.21,,,,,,,,,203.928,-9.661,0.488,2.527,0.132,1183.17,-22.874
5.215,0.0762,0.6543,0.1719,-20.2381,-114.7759,-8.4034,31.1,86610.0,,,,,,,
5.22,,,,,,,,,203.871,-9.633,0.478,2.637,0.132,1187.13,-22.817
5.225,0.0229,0.6538,0.1406,-15.7563,-116.6667,-8.1232,31.1,86584.0,,,,,,,
5.23,,,,,,,,,203.812,-9.605,0.495,2.733,0.139,1188.83,-22.713
5.235,0.082,0.6528,0.1572,13.5854,-126.9608,-10.014,31.1,86546.0,,,,,,,
5.24,,,,,,,,,203.755,-9.576,0.508,2.831,0.145,1191.66,-22.665
5.245,0.0454,0.6382,0.1309,19.1877,-127.6611,-11.5546,31.1,86552.0,,,,,,,
5.25,,,,,,,,,203.7,-9.544,0.497,2.937,0.144,1194.5,-22.609
5.255,0.04,0.6382,0.1587,7.3529,-123.4594,-10.9244,31.1,86521.0,,,,,,,
5.26,,,,,,,,,203.65,-9.512,0.48,3.043,0.143,1198.65,-22.523
5.265,0.0156,0.6436,0.1294,6.8627,-116.7367,-8.6835,31.1,86469.0,,,,,,,
5.27,,,,,,,,,203.598,-9.479,0.474,3.146,0.145,1200.45,-22.514
5.275,0.0767,0.6421,0.1436,-29.902,-106.7927,-7.563,31.0,86432.0,,,,,,,
5.28,,,,,,,,,203.546,-9.446,0.468,3.243,0.146,1202.9,-22.495
5.285,0.0435,0.6494,0.1445,-3.7115,-121.6387,-9.3137,31.1,86381.0,,,,,,,
5.29,,,,,,,,,203.496,-9.414,0.493,3.33,0.156,1205.93,-22.495
5.295,0.0542,0.6504,0.1553,-2.451,-119.958,-10.8543,31.1,86354.0,,,,,,,
5.3,,,,,,,,,203.441,-9.378,0.495,3.43,0.16,1206.5,-22.428
5.305,0.0132,0.6494,0.1445,-20.3782,-108.0532,-10.3641,31.0,86339.0,,,,,,,
5.31,,,,,,,,,203.385,-9.342,0.497,3.528,0.164,1208.86,-22.428
5.315,0.0498,0.6509,0.1016,0.2801,-118.6275,-9.0336,31.1,86316.0,,,,,,,
5.32,,,,,,,,,203.337,-9.307,0.512,3.616,0.174,1213.78,-22.428
5.325,0.0288,0.6401,0.1489,-7.1429,-118.2773,-7.9132,31.1,86290.0,,,,,,,
5.33,,,,,,,,,203.291,-9.269,0.512,3.712,0.176,1217.29,-22.428
5.335,0.0757,0.6406,0.1235,-4.2017,-120.5882,-8.5434,31.1,86236.0,,,,,,,
5.34,,,,,,,,,203.254,-9.23,0.518,3.808,0.18,1222.11,-22.314
5.345,0.0195,0.6406,0.1733,3.3613,-123.3193,-9.3137,31.1,86245.0,,,,,,,
5.35,,,,,,,,,203.217,-9.189,0.521,3.905,0.183,1224.67,-22.314
5.355,0.0459,0.6465,0.1294,5.5322,-125.9804,-9.5238,31.1,86208.0,,,,,,,
5.36,,,,,,,,,203.176,-9.146,0.518,4.004,0.184,1226.09,-22.314
5.365,0.0083,0.6328,0.1172,-13.7255,-114.986,-7.423,31.1,86169.0,,,,,,,
5.37,,,,,,,,,203.134,-9.102,0.513,4.104,0.184,1228.27,-22.371
5.375,0.0796,0.6421,0.1162,10.9944,-126.8908,-6.7227,31.1,86165.0,,,,,,,
5.38,,,,,,,,,203.091,-9.059,0.524,4.195,0.189,1230.74,-22.371
5.385,0.0459,0.6377,0.1792,8.9636,-129.0616,-7.2129,31.0,86120.0,,,,,,,
5.39,,,,,,,,,203.055,-9.013,0.515,4.296,0.185,1235.01,-22.286
5.395,0.0137,0.6416,0.0986,-5.042,-121.6387,-7.423,31.1,86088.0,,,,,,,
5.4,,,,,,,,,203.013,-8.964,0.508,4.397,0.182,1235.86,-22.258
5.405,0.0742,0.6396,0.1665,-7.563,-118.6975,-7.493,31.0,86064.0,,,,,,,
5.41,,,,,,,,,202.973,-8.917,0.512,4.492,0.184,1238.51,-22.258
5.415,0.0337,0.6304,0.1104,-15.3361,-114.4958,-6.5126,31.1,86037.0,,,,,,,
5.42,,,,,,,,,202.935,-8.869,0.518,4.584,0.188,1242.21,-22.258
5.425,0.0488,0.626,0.1401,-23.1092,-112.535,-5.7423,31.0,86003.0,,,,,,,
5.43,,,,,,,,,202.891,-8.822,0.53,4.672,0.194,1242.59,-22.258
5.435,0.0288,0.6338,0.125,-25.07,-116.6667,-4.902,31.1,85985.0,,,,,,,
5.44,,,,,,,,,202.853,-8.775,0.548,4.759,0.203,1246.87,-22.239
5.445,0.0439,0.6279,0.1177,-1.8908,-127.8011,-7.2829,31.1,85968.0,,,,,,,
5.45,,,,,,,,,202.816,-8.725,0.568,4.847,0.212,1249.91,-22.201
5.455,0.0649,0.6206,0.1079,-17.8571,-120.3081,-7.8431,31.1,85923.0,,,,,,,
5.46,,,,,,,,,202.78,-8.67,0.569,4.944,0.212,1252.19,-22.125
5.465,0.0347,0.6284,0.1938,-20.8683,-119.3978,-6.5126,31.1,85887.0,,,,,,,
5.47,,,,,,,,,202.743,-8.617,0.582,5.035,0.22,1254.75,-22.125
5.475,0.0186,0.6284,0.0835,-13.7255,-120.7983,-4.4818,31.0,85846.0,,,,,,,
5.48,,,,,,,,,202.71,-8.563,0.598,5.124,0.228,1257.98,-22.058
5.485,0.0835,0.6304,0.1787,-1.5406,-129.4818,-5.112,31.1,85859.0,,,,,,,
5.49,,,,,,,,,202.674,-8.507,0.61,5.214,0.231,1259.69,-22.02
5.495,0.0444,0.6289,0.126,6.0924,-129.2717,-7.0728,31.1,85834.0,,,,,,,
5.5,,,,,,,,,202.635,-8.448,0.612,5.31,0.229,1261.31,-22.02
5.505,0.0483,0.627,0.1323,0.4202,-129.5518,-8.7535,31.1,85773.0,,,,,,,
5.51,,,,,,,,,202.602,-8.388,0.607,5.405,0.225,1265.59,-22.02
5.515,0.0322,0.6284,0.1543,-11.2045,-123.1092,-8.5434,31.1,85765.0,,,,,,,
5.52,,,,,,,,,202.571,-8.326,0.606,5.5,0.224,1269.01,-22.02
5.525,0.0273,0.6162,0.1279,-5.6723,-129.5518,-7.7031,31.1,85739.0,,,,,,,
5.53,,,,,,,,,202.541,-8.266,0.613,5.589,0.23,1271.68,-22.02
5.535,0.0854,0.6143,0.1338,5.042,-135.1541,-7.3529,31.1,85687.0,,,,,,,
5.54,,,,,,,,,202.507,-8.202,0.617,5.682,0.231,1272.91,-22.02
5.545,0.0337,0.6147,0.1621,-21.5686,-118.8375,-7.7731,31.1,85719.0,,,,,,,
5.55,,,,,,,,,202.468,-8.134,0.613,5.778,0.227,1274.06,-22.02
5.555,0.0649,0.6187,0.1123,-1.1905,-127.521,-9.1737,31.1,85647.0,,,,,,,
5.56,,,,,,,,,202.44,-8.073,0.628,5.862,0.237,1279.87,-22.02
5.565,0.0347,0.6128,0.1255,-16.8067,-119.958,-9.1737,31.1,85619.0,,,,,,,
5.57,,,,,,,,,202.406,-8.007,0.627,5.952,0.238,1280.63,-21.992
5.575,0.0498,0.6099,0.1396,-3.7815,-124.6499,-8.6134,31.0,85606.0,,,,,,,
5.58,,,,,,,,,202.374,-7.943,0.637,6.035,0.247,1283.11,-21.831
5.585,0.0513,0.6099,0.1353,6.7227,-128.9916,-8.6835,31.1,85602.0,,,,,,,
5.59,,,,,,,,,202.34,-7.877,0.639,6.122,0.248,1285.01,-21.783
5.595,0.041,0.6226,0.1675,-38.3754,-107.7731,-8.6134,31.1,85560.0,,,,,,,
5.6,,,,,,,,,202.308,-7.807,0.633,6.21,0.243,1288.06,-21.755
5.605,0.0737,0.6079,0.0889,-15.3361,-118.8375,-10.1541,31.1,85520.0,,,,,,,
5.61,,,,,,,,,202.28,-7.746,0.658,6.283,0.264,1291.88,-21.755
5.615,0.0278,0.5923,0.1689,-18.5574,-116.6667,-10.084,31.0,85484.0,,,,,,,
5.62,,,,,,,,,202.253,-7.68,0.666,6.363,0.273,1294.55,-21.745
5.625,0.0557,0.6035,0.1069,-11.7647,-119.4678,-8.8936,31.1,85445.0,,,,,,,
5.63,,,,,,,,,202.221,-7.613,0.676,6.441,0.284,1295.79,-21.717
5.635,0.0518,0.6016,0.1616,-7.423,-122.6891,-8.5434,31.0,85425.0,,,,,,,
5.64,,,,,,,,,202.184,-7.545,0.683,6.52,0.29,1296.17,-21.66
5.645,0.0674,0.5928,0.1147,7.8431,-130.8824,-9.0336,31.0,85418.0,,,,,,,
5.65,,,,,,,,,202.152,-7.474,0.686,6.6,0.293,1300.18,-21.66
5.655,0.0664,0.6064,0.124,2.521,-129.902,-9.7339,31.1,85355.0,,,,,,,
5.66,,,,,,,,,202.123,-7.399,0.68,6.686,0.286,1304.0,-21.622
5.665,0.0405,0.5977,0.1631,-0.5602,-125.6303,-8.6134,31.0,85326.0,,,,,,,
5.67,,,,,,,,,202.098,-7.322,0.677,6.77,0.284,1307.43,-21.593
5.675,0.0225,0.603,0.1357,-1.4706,-128.5714,-6.8627,31.1,85356.0,,,,,,,
5.68,,,,,,,,,202.076,-7.248,0.676,6.85,0.283,1311.16,-21.536
5.685,0.0508,0.5864,0.1382,-18.3473,-121.2885,-6.7927,31.1,85303.0,,,,,,,
5.69,,,,,,,,,202.053,-7.17,0.676,6.931,0.281,1313.07,-21.527
5.695,0.0566,0.5923,0.1187,26.3305,-143.9776,-8.2633,31.0,85294.0,,,,,,,
5.7,,,,,,,,,202.025,-7.095,0.687,7.006,0.289,1313.74,-21.499
5.705,0.0552,0.5938,0.188,-28.3613,-116.4566,-8.5434,31.0,85266.0,,,,,,,
5.71,,,,,,,,,202.007,-7.008,0.67,7.096,0.27,1319.67,-21.423
5.715,0.0107,0.603,0.1152,11.6947,-133.3333,-8.8235,31.1,85197.0,,,,,,,
5.72,,,,,,,,,201.982,-6.934,0.686,7.166,0.286,1319.77,-21.423
5.725,0.0732,0.5762,0.1406,-0.8403,-128.8515,-8.4734,31.1,85207.0,,,,,,,
5.73,,,,,,,,,201.957,-6.851,0.677,7.247,0.277,1322.54,-21.423
5.735,0.043,0.5933,0.104,-31.5826,-111.7647,-7.423,31.1,85183.0,,,,,,,
5.74,,,,,,,,,201.933,-6.769,0.676,7.324,0.275,1324.74,-21.347
5.745,0.0562,0.5747,0.1514,1.4706,-126.0504,-7.493,31.1,85165.0,,,,,,,
5.75,,,,,,,,,201.903,-6.695,0.693,7.389,0.294,1325.6,-21.347
5.755,0.0269,0.5835,0.1592,8.4034,-132.7731,-7.0728,31.1,85117.0,,,,,,,
5.76,,,,,,,,,201.874,-6.613,0.691,7.462,0.29,1328.28,-21.337
5.765,0.0649,0.5884,0.1084,25.5602,-141.5266,-7.563,31.0,85089.0,,,,,,,
5.77,,,,,,,,,201.854,-6.527,0.686,7.539,0.281,1333.93,-21.318
5.775,0.0127,0.5791,0.0996,-23.4594,-120.5882,-6.4426,31.0,85051.0,,,,,,,
5.78,,,,,,,,,201.831,-6.435,0.671,7.62,0.26,1334.89,-21.242
5.785,0.0864,0.5908,0.1846,-0.9804,-128.6415,-7.7731,31.0,85044.0,,,,,,,
5.79,,,,,,,,,201.803,-6.353,0.683,7.687,0.273,1336.23,-21.242
5.795,0.0151,0.5962,0.0669,5.8824,-131.3725,-7.9132,31.1,85010.0,,,,,,,
5.8,,,,,,,,,201.774,-6.266,0.682,7.758,0.271,1337.95,-21.242
5.805,0.0835,0.585,0.1689,0.7703,-128.7115,-8.4034,31.0,84982.0,,,,,,,
5.81,,,,,,,,,201.75,-6.177,0.677,7.83,0.264,1342.55,-21.242
5.815,-0.0068,0.5874,0.0962,-2.451,-131.7927,-8.1232,31.1,84945.0,,,,,,,
5.82,,,,,,,,,201.728,-6.089,0.674,7.899,0.261,1345.24,-21.176
5.825,0.1099,0.5742,0.1328,-17.3669,-120.8683,-7.7031,31.1,84912.0,,,,,,,
5.83,,,,,,,,,201.708,-5.997,0.674,7.969,0.259,1348.88,-21.223
5.835,-0.0078,0.5835,0.1436,-3.8515,-126.1204,-7.423,31.0,84914.0,,,,,,,
5.84,,,,,,,,,201.684,-5.912,0.681,8.031,0.269,1349.55,-21.176
5.845,0.0684,0.5718,0.1064,28.1513,-139.3557,-7.7031,31.1,84892.0,,,,,,,
5.85,,,,,,,,,201.661,-5.823,0.681,8.096,0.268,1352.81,-21.176
5.855,0.0425,0.5771,0.1357,9.6639,-132.2829,-7.2829,31.1,84846.0,,,,,,,
5.86,,,,,,,,,201.639,-5.725,0.665,8.167,0.245,1355.5,-21.176
5.865,0.0381,0.5767,0.0957,-15.4762,-117.9272,-6.6527,31.0,84841.0,,,,,,,
5.87,,,,,,,,,201.62,-5.631,0.659,8.233,0.234,1359.05,-21.147
5.875,0.04,0.5723,0.1362,-23.6695,-111.9048,-6.5126,31.0,84796.0,,,,,,,
5.88,,,,,,,,,201.602,-5.545,0.664,8.291,0.242,1362.03,-21.147
5.885,0.022,0.5894,0.0967,-16.1765,-118.9076,-6.5826,31.1,84775.0,,,,,,,
5.89,,,,,,,,,201.579,-5.463,0.674,8.344,0.257,1362.22,-21.024
5.895,0.0679,0.5786,0.1621,-13.3754,-123.6695,-7.563,31.1,84747.0,,,,,,,
5.9,,,,,,,,,201.554,-5.375,0.68,8.4,0.265,1364.14,-21.024
5.905,0.0239,0.5791,0.0854,-6.0224,-121.6387,-7.7031,31.1,84720.0,,,,,,,
5.91,,,,,,,,,201.534,-5.283,0.684,8.458,0.272,1368.56,-21.024
5.915,0.0518,0.5737,0.1372,-5.4622,-119.7479,-8.3333,31.0,84686.0,,,,,,,
5.92,,,,,,,,,201.508,-5.193,0.685,8.513,0.273,1369.04,-21.024
5.925,0.0288,0.5732,0.0884,5.7423,-125.9104,-8.1232,31.0,84667.0,,,,,,,
5.93,,,,,,,,,201.488,-5.103,0.685,8.567,0.274,1373.37,-21.024
5.935,0.0659,0.5688,0.1382,-3.6415,-121.1485,-8.1933,31.0,84679.0,,,,,,,
5.94,,,,,,,,,201.466,-5.009,0.679,8.623,0.267,1375.39,-21.015
5.945,0.0347,0.561,0.1157,2.521,-129.4818,-8.5434,31.0,84632.0,,,,,,,
5.95,,,,,,,,,201.445,-4.917,0.678,8.676,0.266,1378.08,-21.015
5.955,0.0537,0.564,0.1182,8.1232,-129.0616,-8.6134,31.1,84597.0,,,,,,,
5.96,,,,,,,,,201.424,-4.819,0.674,8.732,0.261,1380.68,-20.958
5.965,0.0366,0.5752,0.1245,6.6527,-130.042,-8.7535,31.0,84558.0,,,,,,,
5.97,,,,,,,,,201.406,-4.721,0.668,8.786,0.251,1383.95,-20.948
5.975,0.0103,0.5581,0.0996,1.5406,-130.3922,-8.4034,31.1,84542.0,,,,,,,
5.98,,,,,,,,,201.382,-4.621,0.662,8.839,0.243,1384.62,-20.958
5.985,0.0474,0.5557,0.1265,-26.8207,-117.0868,-7.2829,31.0,84523.0,,,,,,,
5.99,,,,,,,,,201.354,-4.52,0.658,8.892,0.238,1385.78,-20.948
5.995,0.064,0.5571,0.1465,-13.4454,-117.9972,-7.423,31.1,84509.0,,,,,,,
6.0,,,,,,,,,201.329,-4.428,0.666,8.937,0.256,1389.15,-20.863
6.005,0.0332,0.5581,0.1035,7.9132,-131.6527,-8.1933,31.1,84480.0,,,,,,,
6.01,,,,,,,,,201.308,-4.334,0.668,8.982,0.263,1392.52,-20.768
6.015,0.0366,0.5527,0.1406,-6.5826,-127.1008,-7.2129,31.1,84444.0,,,,,,,
6.02,,,,,,,,,201.291,-4.231,0.662,9.032,0.253,1396.28,-20.711
6.025,0.0537,0.5552,0.1084,-6.6527,-127.8711,-7.423,31.0,84400.0,,,,,,,
6.03,,,,,,,,,201.271,-4.131,0.662,9.079,0.254,1397.82,-20.654
6.035,0.0415,0.5498,0.125,3.0812,-128.2913,-8.1232,31.0,84362.0,,,,,,,
6.04,,,,,,,,,201.25,-4.029,0.662,9.124,0.255,1399.65,-20.654
6.045,0.0278,0.5596,0.1572,15.6162,-136.4846,-8.2633,31.0,84337.0,,,,,,,
6.05,,,,,,,,,201.225,-3.926,0.658,9.169,0.248,1401.0,-20.635
6.055,0.0405,0.5586,0.0952,16.3165,-131.5826,-7.423,31.0,84348.0,,,,,,,
6.06,,,,,,,,,201.201,-3.818,0.649,9.216,0.232,1403.8,-20.635
6.065,0.0391,0.5566,0.1763,13.9356,-128.9216,-7.2129,31.1,84310.0,,,,,,,
6.07,,,,,,,,,201.18,-3.713,0.641,9.26,0.214,1407.27,-20.635
6.075,0.0464,0.5552,0.0879,-3.2913,-123.6695,-6.5826,31.1,84290.0,,,,,,,
6.08,,,,,,,,,201.164,-3.609,0.634,9.302,0.199,1411.51,-20.626
6.085,0.0444,0.5522,0.1523,-3.0112,-122.8291,-6.1625,31.0,84273.0,,,,,,,
6.09,,,,,,,,,201.151,-3.508,0.632,9.34,0.197,1415.18,-20.626
6.095,0.0312,0.5444,0.106,-7.8431,-121.6387,-6.3025,31.0,84225.0,,,,,,,
6.1,,,,,,,,,201.135,-3.408,0.63,9.377,0.195,1416.54,-20.597
6.105,0.0518,0.5503,0.1377,-0.1401,-124.5798,-6.7927,31.1,84215.0,,,,,,,
6.11,,,,,,,,,201.115,-3.308,0.63,9.413,0.198,1417.6,-20.597
6.115,0.0283,0.5479,0.1299,-19.1877,-115.6162,-6.9328,31.0,84183.0,,,,,,,
6.12,,,,,,,,,201.095,-3.205,0.627,9.449,0.194,1420.21,-20.597
6.125,0.0308,0.5557,0.1294,-5.7423,-122.409,-7.3529,31.0,84161.0,,,,,,,
6.13,,,,,,,,,201.074,-3.109,0.629,9.481,0.206,1422.14,-20.54
6.135,0.0557,0.5508,0.1211,-17.3669,-118.2073,-7.2829,31.0,84144.0,,,,,,,
6.14,,,,,,,,,201.05,-3.007,0.627,9.514,0.206,1423.78,-20.597
6.145,0.041,0.5508,0.1392,9.3137,-126.4706,-7.563,31.0,84101.0,,,,,,,
6.15,,,,,,,,,201.032,-2.908,0.628,9.544,0.217,1428.42,-20.54
6.155,0.0435,0.5342,0.0977,-9.1737,-122.549,-7.423,31.0,84118.0,,,,,,,
6.16,,,,,,,,,201.01,-2.803,0.622,9.576,0.205,1429.39,-20.512
6.165,0.0522,0.5347,0.1494,10.2941,-130.3922,-7.0728,31.1,84059.0,,,,,,,
6.17,,,,,,,,,200.99,-2.7,0.621,9.606,0.208,1432.48,-20.512
6.175,0.0664,0.5449,0.1089,14.7059,-130.1821,-7.3529,31.1,84049.0,,,,,,,
6.18,,,,,,,,,200.969,-2.591,0.615,9.636,0.195,1434.61,-20.502
6.185,-0.0039,0.541,0.1318,-14.3557,-112.8151,-7.0028,31.1,84019.0,,,,,,,
6.19,,,,,,,,,200.945,-2.482,0.608,9.666,0.178,1436.25,-20.455
6.195,0.0825,0.5391,0.0801,7.6331,-126.8908,-7.7031,31.0,83984.0,,,,,,,
6.2,,,,,,,,,200.922,-2.386,0.608,9.69,0.186,1438.77,-20.455
6.205,0.0288,0.5347,0.1494,-8.1232,-120.098,-7.9832,31.1,83972.0,,,,,,,
6.21,,,,,,,,,200.897,-2.279,0.602,9.716,0.175,1440.41,-20.398
6.215,0.0596,0.5566,0.1021,4.902,-125.4202,-8.7535,31.0,83932.0,,,,,,,
6.22,,,,,,,,,200.877,-2.177,0.599,9.739,0.178,1444.48,-20.322
6.225,0.0215,0.5366,0.1118,-1.4006,-124.0896,-8.6835,31.0,83896.0,,,,,,,
6.23,,,,,,,,,200.852,-2.071,0.593,9.763,0.17,1445.45,-20.322
6.235,0.0479,0.5352,0.144,13.5154,-131.5826,-8.6134,31.0,83887.0,,,,,,,
6.24,,,,,,,,,200.829,-1.965,0.588,9.785,0.167,1448.35,-20.284
6.245,0.0405,0.5342,0.0894,-6.2325,-122.1989,-8.6835,31.0,83855.0,,,,,,,
6.25,,,,,,,,,200.809,-1.853,0.581,9.808,0.151,1451.75,-20.237
6.255,0.0264,0.5342,0.1523,5.112,-125.8403,-9.4538,31.0,83813.0,,,,,,,
6.26,,,,,,,,,200.786,-1.748,0.576,9.827,0.152,1452.91,-20.237
6.265,0.0503,0.5435,0.0918,18.4874,-131.9328,-9.944,31.1,83801.0,,,,,,,
6.27,,,,,,,,,200.766,-1.64,0.569,9.846,0.144,1456.79,-20.237
6.275,0.0098,0.5254,0.1367,3.0812,-124.7899,-10.014,31.0,83778.0,,,,,,,
6.28,,,,,,,,,200.749,-1.528,0.56,9.865,0.123,1460.28,-20.237
6.285,0.0649,0.5254,0.0767,-6.2325,-117.2969,-9.2437,31.0,83745.0,,,,,,,
6.29,,,,,,,,,200.727,-1.421,0.553,9.882,0.117,1461.15,-20.208
6.295,0.0078,0.5337,0.1396,24.7899,-133.4034,-9.2437,31.1,83709.0,,,,,,,
6.3,,,,,,,,,200.707,-1.319,0.547,9.896,0.118,1464.25,-20.199
6.305,0.0356,0.54,0.1343,-7.0028,-119.7479,-8.9636,31.1,83689.0,,,,,,,
6.31,,,,,,,,,200.692,-1.205,0.538,9.912,0.092,1468.33,-20.189
6.315,0.0366,0.5229,0.0835,-17.0868,-113.6555,-9.3838,31.0,83677.0,,,,,,,
6.32,,,,,,,,,200.673,-1.101,0.532,9.924,0.095,1469.49,-20.189
6.325,0.0234,0.5278,0.1597,-19.958,-109.5938,-9.2437,31.0,83634.0,,,,,,,
6.33,,,,,,,,,200.653,-1.002,0.527,9.935,0.106,1471.73,-20.189
6.335,0.0366,0.5229,0.0605,2.1709,-121.0784,-8.4734,31.0,83622.0,,,,,,,
6.34,,,,,,,,,200.635,-0.906,0.522,9.944,0.12,1474.93,-20.18
6.345,0.0,0.5142,0.1357,1.6807,-122.409,-6.9328,31.0,83573.0,,,,,,,
6.35,,,,,,,,,200.621,-0.801,0.516,9.953,0.114,1478.43,-20.066
6.355,0.0693,0.5249,0.1143,-5.3221,-121.3585,-7.1429,31.0,83572.0,,,,,,,
6.36,,,,,,,,,200.606,-0.695,0.511,9.962,0.108,1480.37,-20.018
6.365,0.0127,0.5273,0.125,-3.8515,-120.028,-8.0532,31.0,83555.0,,,,,,,
6.37,,,,,,,,,200.587,-0.589,0.506,9.969,0.108,1481.54,-20.018
6.375,0.0459,0.5181,0.1001,-1.2605,-123.5994,-8.7535,31.0,83525.0,,,,,,,
6.38,,,,,,,,,200.573,-0.485,0.501,9.975,0.108,1485.72,-20.018
6.385,0.0122,0.5132,0.0972,-5.042,-121.6387,-7.6331,31.1,83480.0,,,,,,,
6.39,,,,,,,,,200.555,-0.377,0.495,9.98,0.104,1486.88,-20.009
6.395,0.0312,0.5205,0.1372,-15.2661,-118.3473,-5.8123,31.0,83474.0,,,,,,,
6.4,,,,,,,,,200.544,-0.271,0.49,9.983,0.105,1491.65,-19.971
6.405,0.0581,0.5186,0.104,0.4202,-125.07,-5.6723,31.0,83466.0,,,,,,,
6.41,,,,,,,,,200.526,-0.168,0.486,9.986,0.114,1491.75,-19.971
6.415,0.0366,0.5093,0.1343,-1.6106,-121.4286,-6.3025,31.0,83420.0,,,,,,,
6.42,,,,,,,,,200.505,-0.059,0.483,9.987,0.109,1493.4,-19.924
6.425,0.0386,0.5034,0.0693,3.9216,-124.0196,-6.4426,31.0,83391.0,,,,,,,
6.43,,,,,,,,,200.487,0.046,0.479,9.987,0.106,1496.32,-19.886
6.435,0.0229,0.5112,0.1719,13.7255,-125.9104,-5.7423,31.0,83360.0,,,,,,,
6.44,,,,,,,,,200.474,0.154,0.474,9.987,0.098,1500.7,-19.876
6.445,0.0234,0.5073,0.0728,8.1232,-126.0504,-4.7619,31.0,83326.0,,,,,,,
6.45,,,,,,,,,200.455,0.263,0.471,9.985,0.082,1501.29,-19.876
6.455,0.0806,0.5146,0.1235,-2.8711,-122.6891,-4.902,31.0,83331.0,,,,,,,
6.46,,,,,,,,,200.433,0.372,0.468,9.981,0.07,1502.07,-19.781
6.465,-0.0024,0.5186,0.0864,2.8711,-122.619,-5.112,31.0,83307.0,,,,,,,
6.47,,,,,,,,,200.416,0.479,0.464,9.977,0.068,1506.55,-19.781
6.475,0.0771,0.5044,0.1328,-9.1036,-116.2465,-5.5322,31.0,83276.0,,,,,,,
6.48,,,,,,,,,200.4,0.585,0.461,9.971,0.061,1509.37,-19.781
6.485,0.0015,0.5068,0.1123,-21.2885,-105.8824,-5.112,31.0,83269.0,,,,,,,
6.49,,,,,,,,,200.385,0.687,0.456,9.965,0.065,1512.39,-19.743
6.495,0.0552,0.4917,0.0796,-1.4006,-119.2577,-4.902,31.0,83215.0,,,,,,,
6.5,,,,,,,,,200.372,0.779,0.451,9.958,0.08,1515.22,-19.705
6.505,0.0488,0.501,0.1196,4.0616,-122.549,-5.2521,31.0,83213.0,,,,,,,
6.51,,,,,,,,,200.354,0.883,0.448,9.95,0.077,1515.71,-19.667
6.515,0.0356,0.5107,0.1162,8.0532,-121.4986,-6.0924,31.0,83201.0,,,,,,,
6.52,,,,,,,,,200.334,0.989,0.445,9.94,0.069,1517.56,-19.658
6.525,0.0557,0.4956,0.1021,12.465,-126.4006,-6.5826,31.0,83170.0,,,,,,,
6.53,,,,,,,,,200.315,1.094,0.441,9.929,0.057,1520.59,-19.667
6.535,0.0547,0.5024,0.1157,7.3529,-123.4594,-6.7927,31.0,83133.0,,,,,,,
6.54,,,,,,,,,200.291,1.203,0.437,9.917,0.042,1521.27,-19.658
6.545,0.0327,0.498,0.0684,-4.2017,-119.3277,-7.1429,31.0,83131.0,,,,,,,
6.55,,,,,,,,,200.276,1.309,0.433,9.904,0.031,1526.54,-19.611
6.555,0.063,0.499,0.1548,-21.5686,-113.5854,-6.9328,31.0,83089.0,,,,,,,
6.56,,,,,,,,,200.254,1.412,0.426,9.89,0.03,1526.74,-19.573
6.565,0.0166,0.5161,0.0884,-7.6331,-117.2969,-6.3725,31.0,83106.0,,,,,,,
6.57,,,,,,,,,200.229,1.511,0.418,9.876,0.044,1527.91,-19.544
6.575,0.0332,0.5029,0.1167,-3.8515,-117.8571,-6.5826,31.0,83018.0,,,,,,,
6.58,,,,,,,,,200.206,1.612,0.412,9.86,0.047,1530.93,-19.544
6.585,0.0547,0.5054,0.1182,9.8739,-124.3697,-7.9832,31.0,83008.0,,,,,,,
6.59,,,,,,,,,200.186,1.713,0.407,9.843,0.046,1534.55,-19.544
6.595,0.063,0.499,0.1187,5.042,-120.9384,-8.8235,31.0,82982.0,,,,,,,
6.6,,,,,,,,,200.159,1.819,0.402,9.824,0.032,1534.74,-19.573
6.605,0.0088,0.4922,0.0825,-4.4818,-117.437,-8.3333,31.0,82963.0,,,,,,,
6.61,,,,,,,,,200.132,1.922,0.395,9.805,0.023,1537.19,-19.573
6.615,0.0542,0.4937,0.1104,-8.4034,-117.437,-7.7031,31.0,82925.0,,,,,,,
6.62,,,,,,,,,200.103,2.023,0.388,9.785,0.022,1538.85,-19.506
6.625,0.0381,0.4902,0.085,-13.0252,-114.3557,-7.7031,31.0,82917.0,,,,,,,
6.63,,,,,,,,,200.087,2.123,0.38,9.764,0.025,1545.79,-19.506
6.635,0.0483,0.4912,0.1235,-16.6667,-114.3557,-8.5434,31.0,82896.0,,,,,,,
6.64,,,,,,,,,200.066,2.221,0.371,9.743,0.032,1546.77,-19.506
6.645,0.0435,0.4902,0.1191,10.1541,-126.4006,-9.5238,31.0,82877.0,,,,,,,
6.65,,,,,,,,,200.046,2.318,0.361,9.72,0.041,1549.31,-19.506
6.655,0.0137,0.5044,0.1118,-14.1457,-114.2157,-9.3137,31.0,82851.0,,,,,,,
6.66,,,,,,,,,200.025,2.425,0.356,9.694,0.028,1551.17,-19.402
6.665,0.0332,0.4971,0.0923,-11.0644,-115.6863,-8.4034,31.0,82834.0,,,,,,,
6.67,,,,,,,,,200.008,2.521,0.345,9.67,0.035,1554.89,-19.402
6.675,0.0312,0.4907,0.0962,-2.1709,-118.3473,-7.493,31.0,82741.0,,,,,,,
6.68,,,,,,,,,199.985,2.619,0.336,9.644,0.04,1555.67,-19.402
6.685,0.063,0.4873,0.1401,4.0616,-120.9384,-7.7731,31.0,82769.0,,,,,,,
6.69,,,,,,,,,199.962,2.719,0.329,9.617,0.037,1557.73,-19.373
6.695,0.0488,0.4922,0.0752,4.4118,-119.6779,-8.1232,31.0,82746.0,,,,,,,
6.7,,,,,,,,,199.938,2.82,0.324,9.588,0.029,1559.59,-19.354
6.705,0.001,0.479,0.1484,-8.2633,-114.2857,-8.0532,31.0,82742.0,,,,,,,
6.71,,,,,,,,,199.913,2.919,0.319,9.558,0.021,1562.14,-19.354
6.715,0.0508,0.4834,0.0728,-9.1036,-112.8852,-7.0728,31.0,82717.0,,,,,,,
6.72,,,,,,,,,199.886,3.014,0.31,9.529,0.024,1563.8,-19.345
6.725,0.0264,0.4863,0.1025,-9.7339,-116.1765,-7.0028,31.0,82678.0,,,,,,,
6.73,,,,,,,,,199.871,3.108,0.302,9.499,0.027,1570.18,-19.345
6.735,0.0386,0.4883,0.1182,-10.7143,-114.4258,-7.563,31.0,82657.0,,,,,,,
6.74,,,,,,,,,199.854,3.205,0.294,9.467,0.031,1572.43,-19.335
6.745,0.0356,0.4946,0.1299,-4.972,-115.7563,-7.8431,31.1,82626.0,,,,,,,
6.75,,,,,,,,,199.833,3.299,0.285,9.435,0.035,1572.82,-19.297
6.755,0.0015,0.4731,0.0977,-4.4818,-116.4566,-7.2129,31.0,82623.0,,,,,,,
6.76,,,,,,,,,199.804,3.394,0.277,9.402,0.035,1572.92,-19.297
6.765,0.0503,0.4746,0.1016,10.7143,-124.93,-6.8627,31.0,82602.0,,,,,,,
6.77,,,,,,,,,199.776,3.489,0.27,9.367,0.035,1575.28,-19.278
6.775,0.0176,0.4844,0.1128,2.2409,-120.098,-7.1429,31.0,82545.0,,,,,,,
6.78,,,,,,,,,199.751,3.591,0.268,9.328,0.022,1579.1,-19.259
6.785,0.0317,0.4712,0.1191,19.1877,-128.4314,-7.7731,31.0,82550.0,,,,,,,
6.79,,,,,,,,,199.726,3.688,0.263,9.291,0.016,1581.16,-19.222
6.795,0.0308,0.4771,0.1025,-5.6022,-117.0168,-7.8431,31.0,82506.0,,,,,,,
6.8,,,,,,,,,199.702,3.791,0.263,9.249,-0.003,1584.21,-19.203
6.805,0.0083,0.4814,0.1143,-6.5126,-118.6275,-7.7031,31.0,82484.0,,,,,,,
6.81,,,,,,,,,199.673,3.886,0.255,9.21,-0.003,1584.5,-19.203
6.815,0.0474,0.4775,0.0854,2.6611,-121.4986,-7.2829,31.0,82467.0,,,,,,,
6.82,,,,,,,,,199.642,3.981,0.246,9.169,-0.003,1586.56,-19.165
6.825,0.0303,0.4766,0.1123,-15.7563,-112.6751,-7.563,31.0,82454.0,,,,,,,
6.83,,,,,,,,,199.62,4.078,0.241,9.127,-0.009,1591.67,-19.089
6.835,0.0254,0.4756,0.1196,-4.4818,-119.0476,-7.7031,31.0,82387.0,,,,,,,
6.84,,,,,,,,,199.593,4.167,0.229,9.087,-0.001,1592.16,-19.079
6.845,0.021,0.4697,0.0874,5.9524,-123.6695,-7.3529,31.0,82372.0,,,,,,,
6.85,,,,,,,,,199.569,4.261,0.221,9.043,-0.002,1596.0,-19.07
6.855,0.04,0.4653,0.1172,-3.9916,-121.7787,-7.3529,31.0,82406.0,,,,,,,
6.86,,,,,,,,,199.545,4.358,0.218,8.997,-0.011,1598.16,-19.07
6.865,0.0391,0.4785,0.0762,-1.1905,-122.2689,-7.0028,31.0,82329.0,,,,,,,
6.87,,,,,,,,,199.518,4.454,0.21,8.95,-0.012,1599.83,-19.07
6.875,0.0186,0.4722,0.1401,-5.112,-116.6667,-6.6527,31.0,82328.0,,,,,,,
6.88,,,,,,,,,199.489,4.549,0.204,8.903,-0.015,1601.11,-19.07
6.885,0.0161,0.4756,0.0698,3.3613,-122.6891,-6.5826,31.0,82322.0,,,,,,,
6.89,,,,,,,,,199.465,4.639,0.196,8.856,-0.015,1605.83,-19.07
6.895,0.0444,0.4741,0.1177,-0.3501,-121.0084,-6.3725,31.0,82231.0,,,,,,,
6.9,,,,,,,,,199.44,4.733,0.192,8.806,-0.022,1607.7,-19.051
6.905,0.0391,0.4741,0.0977,-6.9328,-119.3978,-6.7927,31.0,82240.0,,,,,,,
6.91,,,,,,,,,199.413,4.826,0.187,8.756,-0.025,1609.18,-19.051
6.915,0.0249,0.4766,0.105,-6.7227,-120.7283,-7.1429,31.0,82231.0,,,,,,,
6.92,,,,,,,,,199.39,4.917,0.178,8.705,-0.024,1613.41,-19.022
6.925,0.0273,0.4673,0.1182,19.2577,-133.1232,-6.0924,31.0,82216.0,,,,,,,
6.93,,,,,,,,,199.361,5.008,0.169,8.653,-0.023,1613.51,-19.022
6.935,0.0347,0.4639,0.0703,9.1737,-126.4006,-5.112,31.0,82206.0,,,,,,,
6.94,,,,,,,,,199.327,5.108,0.173,8.595,-0.041,1614.1,-19.022
6.945,0.0645,0.4609,0.1313,-11.2045,-118.1373,-4.972,31.0,82157.0,,,,,,,
6.95,,,,,,,,,199.309,5.202,0.172,8.538,-0.052,1622.18,-19.022
6.955,0.0527,0.4678,0.0732,2.3109,-123.9496,-5.8123,31.0,82129.0,,,,,,,
6.96,,,,,,,,,199.286,5.29,0.163,8.484,-0.047,1623.06,-19.022
6.965,0.0259,0.4717,0.1187,3.4314,-122.1289,-5.9524,31.0,82137.0,,,,,,,
6.97,,,,,,,,,199.257,5.381,0.159,8.426,-0.052,1623.06,-18.984
6.975,0.02,0.4658,0.0996,-1.8207,-120.6583,-5.6022,31.0,82084.0,,,,,,,
6.98,,,,,,,,,199.225,5.47,0.155,8.369,-0.058,1624.54,-18.975
6.985,0.0391,0.4619,0.103,6.0924,-123.9496,-5.3922,31.0,82053.0,,,,,,,
6.99,,,,,,,,,199.19,5.558,0.149,8.311,-0.06,1625.53,-18.899
6.995,0.0498,0.4614,0.1045,-0.4202,-122.409,-6.0224,31.0,82042.0,,,,,,,
7.0,,,,,,,,,199.161,5.647,0.147,8.251,-0.068,1630.36,-18.889
7.005,0.021,0.4702,0.0908,9.6639,-126.8207,-6.7227,31.0,82029.0,,,,,,,
7.01,,,,,,,,,199.132,5.735,0.142,8.19,-0.072,1632.34,-18.861
7.015,0.0386,0.4683,0.1289,7.1429,-124.5098,-7.2129,31.0,82001.0,,,,,,,
7.02,,,,,,,,,199.098,5.824,0.141,8.126,-0.083,1633.13,-18.861
7.025,0.0181,0.4595,0.085,6.0924,-125.3501,-7.2129,31.0,81977.0,,,,,,,
7.03,,,,,,,,,199.07,5.912,0.138,8.063,-0.092,1637.57,-18.861
7.035,0.0376,0.4634,0.1118,2.6611,-124.4398,-7.3529,31.0,81949.0,,,,,,,
7.04,,,,,,,,,199.043,6.0,0.135,7.998,-0.101,1640.62,-18.861
7.045,0.0415,0.459,0.0781,-5.5322,-119.6779,-7.2829,31.1,81961.0,,,,,,,
7.05,,,,,,,,,199.013,6.086,0.13,7.932,-0.107,1641.71,-18.861
7.055,0.0332,0.4663,0.1309,-5.7423,-118.4174,-7.8431,31.0,81922.0,,,,,,,
7.06,,,,,,,,,198.98,6.168,0.12,7.868,-0.108,1643.0,-18.814
7.065,0.0391,0.4595,0.0859,1.8908,-122.549,-8.1232,31.0,81900.0,,,,,,,
7.07,,,,,,,,,198.948,6.249,0.11,7.805,-0.109,1645.76,-18.814
7.075,0.043,0.4585,0.1025,-14.3557,-113.5854,-7.9832,31.0,81869.0,,,,,,,
7.08,,,,,,,,,198.916,6.332,0.104,7.738,-0.115,1648.13,-18.785
7.085,0.0181,0.4521,0.1045,-14.0756,-113.6555,-8.3333,31.0,81870.0,,,,,,,
7.09,,,,,,,,,198.882,6.408,0.09,7.675,-0.11,1649.71,-18.776
7.095,0.0625,0.4614,0.103,3.2913,-123.3193,-8.8936,31.0,81845.0,,,,,,,
7.1,,,,,,,,,198.844,6.484,0.075,7.611,-0.105,1650.9,-18.738
7.105,0.0166,0.4521,0.1167,19.0476,-129.972,-8.5434,31.0,81790.0,,,,,,,
7.11,,,,,,,,,198.808,6.565,0.069,7.541,-0.113,1653.57,-18.738
7.115,0.0107,0.4517,0.0923,-1.4706,-120.8683,-7.493,31.0,81786.0,,,,,,,
7.12,,,,,,,,,198.77,6.65,0.073,7.466,-0.13,1655.74,-18.738
7.125,0.0566,0.4536,0.1128,-9.944,-118.7675,-7.2129,31.0,81761.0,,,,,,,
7.13,,,,,,,,,198.735,6.728,0.065,7.396,-0.134,1658.71,-18.728
7.135,0.0596,0.4482,0.0889,-15.1261,-112.6751,-8.2633,31.0,81732.0,,,,,,,
7.14,,,,,,,,,198.693,6.804,0.053,7.326,-0.131,1658.81,-18.719
7.145,0.0288,0.4492,0.083,-12.3249,-114.986,-9.3137,31.0,81739.0,,,,,,,
7.15,,,,,,,,,198.652,6.876,0.037,7.259,-0.126,1661.18,-18.624
7.155,0.0098,0.4409,0.125,-2.1709,-117.2969,-7.7731,31.0,81663.0,,,,,,,
7.16,,,,,,,,,198.62,6.948,0.022,7.19,-0.124,1666.63,-18.595
7.165,0.0488,0.4463,0.0786,-5.9524,-114.4258,-7.1429,31.0,81649.0,,,,,,,
7.17,,,,,,,,,198.582,7.021,0.014,7.119,-0.127,1667.02,-18.595
7.175,0.0425,0.4492,0.1201,5.9524,-121.0084,-8.2633,31.0,81649.0,,,,,,,
7.18,,,,,,,,,198.545,7.091,0.005,7.049,-0.127,1669.5,-18.586
7.185,0.0259,0.4497,0.0825,-4.8319,-115.4762,-9.5938,31.0,81644.0,,,,,,,
7.19,,,,,,,,,198.507,7.165,0.001,6.973,-0.135,1671.68,-18.538
7.195,0.0283,0.4473,0.1113,0.9104,-117.1569,-9.5938,31.0,81571.0,,,,,,,
7.2,,,,,,,,,198.465,7.235,-0.008,6.901,-0.137,1672.37,-18.538
7.205,0.0161,0.4385,0.103,-3.0112,-117.0168,-8.6134,31.0,81565.0,,,,,,,
7.21,,,,,,,,,198.435,7.305,-0.015,6.827,-0.143,1679.21,-18.538
7.215,0.0293,0.4365,0.0752,-2.451,-117.3669,-7.7031,31.0,81555.0,,,,,,,
7.22,,,,,,,,,198.402,7.374,-0.024,6.752,-0.146,1680.6,-18.519
7.225,0.0488,0.4326,0.125,5.1821,-119.2577,-7.423,31.0,81533.0,,,,,,,
7.23,,,,,,,,,198.363,7.442,-0.032,6.676,-0.149,1680.6,-18.5
7.235,0.0244,0.4473,0.084,-2.1008,-116.8768,-8.1232,31.0,81512.0,,,,,,,
7.24,,,,,,,,,198.319,7.511,-0.035,6.599,-0.155,1681.09,-18.482
7.245,0.0288,0.4453,0.1152,-5.8824,-112.465,-8.7535,31.0,81452.0,,,,,,,
7.25,,,,,,,,,198.288,7.578,-0.043,6.522,-0.158,1688.33,-18.482
7.255,0.0273,0.4248,0.0786,-1.5406,-115.6863,-8.6134,31.0,81457.0,,,,,,,
7.26,,,,,,,,,198.253,7.641,-0.054,6.448,-0.16,1688.93,-18.482
7.265,0.0303,0.4189,0.084,-4.3417,-114.3557,-7.9832,31.0,81440.0,,,,,,,
7.27,,,,,,,,,198.213,7.706,-0.062,6.37,-0.163,1689.92,-18.463
7.275,0.0361,0.4219,0.0879,14.4258,-123.5294,-7.7031,31.0,81409.0,,,,,,,
7.28,,,,,,,,,198.175,7.768,-0.072,6.293,-0.165,1692.11,-18.33
7.285,0.022,0.4434,0.1177,-10.5042,-112.9552,-7.563,31.0,81387.0,,,,,,,
7.29,,,,,,,,,198.135,7.836,-0.068,6.209,-0.177,1694.19,-18.292
7.295,0.0376,0.4395,0.0981,-3.2913,-114.3557,-8.2633,31.0,81364.0,,,,,,,
7.3,,,,,,,,,198.105,7.896,-0.082,6.132,-0.175,1699.65,-18.292
7.305,0.0195,0.4272,0.0757,8.1933,-117.9972,-8.3333,31.0,81324.0,,,,,,,
7.31,,,,,,,,,198.069,7.957,-0.091,6.053,-0.177,1700.15,-18.292
7.315,0.0288,0.437,0.1084,1.6807,-115.8964,-8.0532,31.0,81292.0,,,,,,,
7.32,,,,,,,,,198.031,8.018,-0.092,5.971,-0.186,1701.34,-18.216
7.325,0.0415,0.4385,0.0879,-5.042,-112.9552,-7.2829,31.0,81302.0,,,,,,,
7.33,,,,,,,,,197.994,8.078,-0.097,5.889,-0.191,1704.42,-18.301
7.335,0.0361,0.4331,0.0947,0.8403,-116.1765,-7.3529,31.0,81261.0,,,,,,,
7.34,,,,,,,,,197.956,8.135,-0.107,5.81,-0.192,1706.61,-18.301
7.345,0.0488,0.4297,0.0728,-5.8824,-114.7759,-6.9328,31.0,81239.0,,,,,,,
7.35,,,,,,,,,197.918,8.194,-0.112,5.727,-0.196,1708.89,-18.225
7.355,0.0176,0.4351,0.0938,-7.493,-112.465,-6.3025,31.0,81194.0,,,,,,,
7.36,,,,,,,,,197.885,8.25,-0.122,5.645,-0.196,1712.87,-18.225
7.365,0.0513,0.4224,0.083,0.9804,-116.3165,-6.0924,31.0,81213.0,,,,,,,
7.37,,,,,,,,,197.852,8.305,-0.133,5.564,-0.195,1715.06,-18.263
7.375,0.0332,0.4185,0.1167,6.5126,-118.9776,-6.3025,31.0,81179.0,,,,,,,
7.38,,,,,,,,,197.814,8.361,-0.138,5.479,-0.198,1716.05,-18.263
7.385,0.0376,0.4277,0.0693,7.1429,-120.5182,-6.6527,31.0,81181.0,,,,,,,
7.39,,,,,,,,,197.779,8.417,-0.139,5.392,-0.204,1719.14,-18.225
7.395,0.0381,0.4214,0.1006,12.8151,-121.0084,-6.7927,31.0,81173.0,,,,,,,
7.4,,,,,,,,,197.743,8.473,-0.14,5.304,-0.21,1721.33,-18.159
7.405,0.0298,0.4126,0.0674,13.9356,-120.4482,-6.6527,31.0,81150.0,,,,,,,
7.41,,,,,,,,,197.709,8.529,-0.136,5.214,-0.219,1723.92,-18.159
7.415,0.0601,0.4316,0.0898,1.2605,-115.8263,-6.5826,31.0,81104.0,,,,,,,
7.42,,,,,,,,,197.673,8.583,-0.132,5.124,-0.228,1725.81,-18.121
7.425,0.0298,0.4204,0.1006,1.6807,-116.3165,-6.7227,31.0,81087.0,,,,,,,
7.43,,,,,,,,,197.634,8.634,-0.136,5.037,-0.231,1727.1,-18.121
7.435,0.0522,0.4253,0.0825,-3.7815,-110.9944,-7.0028,31.0,81051.0,,,,,,,
7.44,,,,,,,,,197.591,8.684,-0.141,4.949,-0.235,1727.3,-18.017
7.445,0.0342,0.4258,0.1001,-8.9636,-108.8936,-7.6331,31.0,81024.0,,,,,,,
7.45,,,,,,,,,197.542,8.732,-0.15,4.865,-0.237,1727.9,-18.017
7.455,0.0293,0.416,0.064,15.2661,-122.2689,-8.1933,31.0,81010.0,,,,,,,
7.46,,,,,,,,,197.493,8.777,-0.163,4.782,-0.237,1730.19,-18.017
7.465,0.0508,0.4033,0.0952,11.0644,-120.7283,-8.0532,31.0,80986.0,,,,,,,
7.47,,,,,,,,,197.451,8.828,-0.157,4.688,-0.247,1734.78,-17.998
7.475,0.0435,0.4253,0.1021,15.6863,-120.7983,-8.1232,31.0,81001.0,,,,,,,
7.48,,,,,,,,,197.407,8.876,-0.155,4.594,-0.256,1736.47,-17.998
7.485,0.0469,0.417,0.1118,5.3221,-116.4566,-8.2633,31.0,80972.0,,,,,,,
7.49,,,,,,,,,197.366,8.924,-0.15,4.5,-0.266,1740.06,-17.998
7.495,0.02,0.4258,0.0728,-2.8711,-111.4146,-7.8431,31.0,80922.0,,,,,,,
7.5,,,,,,,,,197.327,8.969,-0.152,4.409,-0.273,1742.75,-17.979
7.505,0.0474,0.4092,0.0635,2.381,-112.9552,-7.3529,31.0,80909.0,,,,,,,
7.51,,,,,,,,,197.284,9.011,-0.161,4.322,-0.276,1744.15,-18.074
7.515,0.0283,0.4199,0.1113,8.5434,-116.3866,-7.7031,31.0,80875.0,,,,,,,
7.52,,,,,,,,,197.237,9.053,-0.165,4.233,-0.28,1745.05,-17.979
7.525,0.064,0.4111,0.0947,-7.9832,-107.3529,-8.4034,31.0,80896.0,,,,,,,
7.53,,,,,,,,,197.189,9.096,-0.165,4.141,-0.287,1746.54,-17.969
7.535,0.0254,0.4136,0.083,5.5322,-114.0056,-9.6639,31.0,80856.0,,,,,,,
7.54,,,,,,,,,197.138,9.134,-0.177,4.056,-0.289,1747.94,-17.912
7.545,0.04,0.417,0.085,0.8403,-112.6751,-9.944,31.0,80816.0,,,,,,,
7.55,,,,,,,,,197.095,9.173,-0.18,3.965,-0.296,1752.93,-17.893
7.555,0.0288,0.416,0.0825,10.3641,-118.5574,-9.8039,31.0,80825.0,,,,,,,
7.56,,,,,,,,,197.049,9.211,-0.186,3.874,-0.302,1754.23,-17.912
7.565,0.0259,0.416,0.0874,-4.7619,-109.1737,-8.7535,31.0,80812.0,,,,,,,
7.57,,,,,,,,,197.0,9.251,-0.185,3.779,-0.311,1755.53,-17.912
7.575,0.0396,0.4141,0.1084,12.1849,-116.5266,-8.6835,31.0,80762.0,,,,,,,
7.58,,,,,,,,,196.951,9.286,-0.195,3.691,-0.314,1757.63,-17.893
7.585,0.0571,0.4082,0.0732,5.8123,-114.916,-9.2437,31.0,80732.0,,,,,,,
7.59,,,,,,,,,196.9,9.323,-0.192,3.596,-0.323,1759.53,-17.893
7.595,0.0352,0.4053,0.0762,6.4426,-113.0252,-9.944,31.0,80700.0,,,,,,,
7.6,,,,,,,,,196.852,9.358,-0.194,3.502,-0.33,1762.62,-17.855
7.605,0.021,0.4067,0.1021,5.1821,-111.7647,-9.6639,31.0,80687.0,,,,,,,
7.61,,,,,,,,,196.8,9.392,-0.196,3.409,-0.338,1763.52,-17.855
7.615,0.0322,0.4077,0.0781,-10.014,-105.8123,-8.5434,31.0,80683.0,,,,,,,
7.62,,,,,,,,,196.743,9.425,-0.198,3.317,-0.345,1763.92,-17.846
7.625,0.0273,0.4126,0.0923,-15.4762,-102.3109,-7.7731,31.0,80652.0,,,,,,,
7.63,,,,,,,,,196.693,9.454,-0.213,3.231,-0.346,1768.92,-17.846
7.635,0.0425,0.4092,0.0728,-6.3025,-105.4622,-8.4734,31.0,80612.0,,,,,,,
7.64,,,,,,,,,196.645,9.482,-0.231,3.147,-0.346,1771.92,-17.827
7.645,0.0474,0.4131,0.1045,-14.3557,-103.6415,-9.8739,31.0,80622.0,,,,,,,
7.65,,,,,,,,,196.601,9.51,-0.243,3.06,-0.349,1775.13,-17.76
7.655,0.0068,0.4067,0.0815,4.2017,-111.6947,-9.8739,31.0,80611.0,,,,,,,
7.66,,,,,,,,,196.553,9.537,-0.261,2.974,-0.351,1776.43,-17.76
7.665,0.0244,0.3926,0.0728,-3.1513,-106.4426,-8.3333,31.0,80580.0,,,,,,,
7.67,,,,,,,,,196.501,9.565,-0.264,2.881,-0.357,1776.83,-17.741
7.675,0.0283,0.4009,0.085,-10.3641,-103.9216,-6.9328,31.0,80557.0,,,,,,,
7.68,,,,,,,,,196.45,9.591,-0.273,2.792,-0.36,1779.93,-17.732
7.685,0.021,0.4067,0.1118,-6.3725,-105.8123,-6.9328,31.0,80532.0,,,,,,,
7.69,,,,,,,,,196.402,9.615,-0.287,2.705,-0.36,1782.93,-17.713
7.695,0.0479,0.4087,0.0786,-14.4258,-101.3305,-7.6331,31.0,80517.0,,,,,,,
7.7,,,,,,,,,196.35,9.64,-0.298,2.617,-0.362,1783.94,-17.713
7.705,0.0015,0.4014,0.0923,-3.3613,-106.0924,-7.9132,31.0,80480.0,,,,,,,
7.71,,,,,,,,,196.292,9.662,-0.316,2.532,-0.362,1784.04,-17.732
7.715,-0.0088,0.4009,0.1016,-2.451,-107.2129,-7.7031,31.0,80457.0,,,,,,,
7.72,,,,,,,,,196.236,9.684,-0.325,2.442,-0.364,1787.14,-17.713
7.725,0.0718,0.3975,0.0825,-3.4314,-107.7031,-6.3025,31.0,80446.0,,,,,,,
7.73,,,,,,,,,196.181,9.706,-0.332,2.352,-0.367,1789.45,-17.713
7.735,0.0215,0.394,0.0732,-5.2521,-106.3025,-6.8627,31.0,80412.0,,,,,,,
7.74,,,,,,,,,196.127,9.728,-0.341,2.261,-0.368,1791.95,-17.609
7.745,0.0371,0.3896,0.0942,-10.014,-102.8711,-7.2829,31.0,80405.0,,,,,,,
7.75,,,,,,,,,196.07,9.748,-0.351,2.17,-0.369,1793.46,-17.599
7.755,0.0283,0.3916,0.0884,-4.7619,-104.902,-7.2829,31.0,80378.0,,,,,,,
7.76,,,,,,,,,196.018,9.766,-0.365,2.083,-0.37,1797.17,-17.599
7.765,0.0332,0.3999,0.1128,3.8515,-108.5434,-6.5126,31.0,80342.0,,,,,,,
7.77,,,,,,,,,195.966,9.784,-0.374,1.994,-0.372,1799.48,-17.599
7.775,0.0234,0.397,0.0698,5.3922,-108.9636,-6.0924,31.0,80340.0,,,,,,,
7.78,,,,,,,,,195.911,9.803,-0.376,1.901,-0.374,1800.58,-17.58
7.785,0.0396,0.3906,0.0938,-10.5042,-102.0308,-6.2325,31.0,80325.0,,,,,,,
7.79,,,,,,,,,195.859,9.82,-0.377,1.808,-0.376,1803.99,-17.533
7.795,0.0312,0.3926,0.0786,-8.3333,-102.6611,-6.5126,31.0,80300.0,,,,,,,
7.8,,,,,,,,,195.803,9.835,-0.391,1.721,-0.376,1804.69,-17.523
7.805,0.0474,0.3999,0.1177,-5.6723,-102.9412,-6.7927,31.0,80263.0,,,,,,,
7.81,,,,,,,,,195.748,9.85,-0.403,1.633,-0.377,1807.41,-17.466
7.815,0.0049,0.3877,0.0396,-0.3501,-104.972,-6.5126,31.0,80245.0,,,,,,,
7.82,,,,,,,,,195.697,9.864,-0.413,1.544,-0.378,1811.02,-17.466
7.825,0.0469,0.3823,0.1069,2.2409,-106.2325,-6.3025,31.0,80230.0,,,,,,,
7.83,,,,,,,,,195.641,9.877,-0.418,1.454,-0.379,1811.22,-17.438
7.835,0.041,0.3945,0.0859,-6.3025,-101.1204,-6.0224,31.0,80220.0,,,,,,,
7.84,,,,,,,,,195.583,9.89,-0.422,1.362,-0.381,1812.73,-17.419
7.845,0.0259,0.3882,0.0854,2.1709,-103.3613,-6.2325,31.0,80178.0,,,,,,,
7.85,,,,,,,,,195.525,9.901,-0.432,1.275,-0.381,1815.24,-17.438
7.855,0.0347,0.3867,0.0728,-2.6611,-101.1905,-6.4426,31.0,80186.0,,,,,,,
7.86,,,,,,,,,195.472,9.912,-0.435,1.186,-0.382,1818.96,-17.438
7.865,0.0288,0.3877,0.106,4.4818,-105.5322,-6.2325,31.0,80157.0,,,,,,,
7.87,,,,,,,,,195.417,9.922,-0.442,1.098,-0.384,1820.77,-17.4
7.875,0.0171,0.395,0.0537,-3.6415,-102.1709,-6.3025,31.0,80136.0,,,,,,,
7.88,,,,,,,,,195.361,9.931,-0.443,1.007,-0.385,1822.28,-17.353
7.885,0.0581,0.3882,0.1064,6.5126,-105.7423,-7.0028,31.0,80098.0,,,,,,,
7.89,,,,,,,,,195.301,9.939,-0.451,0.918,-0.386,1823.28,-17.353
7.895,-0.0088,0.395,0.0801,-3.9916,-101.1905,-6.7227,31.0,80084.0,,,,,,,
7.9,,,,,,,,,195.244,9.947,-0.45,0.826,-0.388,1826.7,-17.353
7.905,0.043,0.3828,0.0747,2.0308,-103.7815,-6.3725,31.0,80046.0,,,,,,,
7.91,,,,,,,,,195.183,9.954,-0.458,0.739,-0.389,1827.51,-17.353
7.915,0.0107,0.3979,0.0752,6.5126,-106.5126,-6.5826,31.0,80023.0,,,,,,,
7.92,,,,,,,,,195.122,9.96,-0.461,0.648,-0.391,1829.62,-17.353
7.925,0.0547,0.3931,0.0908,2.9412,-104.4818,-7.1429,31.0,80016.0,,,,,,,
7.93,,,,,,,,,195.061,9.966,-0.46,0.555,-0.392,1831.73,-17.353
7.935,0.0332,0.3799,0.0947,1.7507,-101.8908,-7.493,31.0,79993.0,,,,,,,
7.94,,,,,,,,,195.003,9.97,-0.462,0.464,-0.394,1835.56,-17.353
7.945,-0.0088,0.3843,0.0645,1.8207,-103.2213,-6.5826,31.0,79980.0,,,,,,,
7.95,,,,,,,,,194.944,9.974,-0.465,0.376,-0.396,1836.97,-17.353
7.955,0.0513,0.3823,0.0771,-8.4034,-99.2297,-5.3221,31.0,79941.0,,,,,,,
7.96,,,,,,,,,194.888,9.976,-0.468,0.286,-0.398,1840.8,-17.353
7.965,0.0283,0.3892,0.0786,-0.07,-103.8515,-6.0224,31.0,79942.0,,,,,,,
7.97,,,,,,,,,194.833,9.978,-0.48,0.2,-0.398,1843.11,-17.353
7.975,0.0449,0.3804,0.0815,-1.8207,-101.7507,-7.0728,31.0,79917.0,,,,,,,
7.98,,,,,,,,,194.774,9.979,-0.484,0.109,-0.398,1843.82,-17.353
7.985,0.002,0.3848,0.0859,-8.5434,-99.0196,-7.493,31.0,79889.0,,,,,,,
7.99,,,,,,,,,194.715,9.979,-0.49,0.021,-0.4,1846.14,-17.277
7.995,0.0488,0.3799,0.0952,2.6611,-105.6022,-6.9328,31.0,79838.0,,,,,,,
8.0,,,,,,,,,194.654,9.979,-0.502,-0.064,-0.402,1847.45,-17.277
8.005,-0.0151,0.3809,0.0625,-15.8263,-97.549,-5.3922,31.0,79853.0,,,,,,,
8.01,,,,,,,,,194.597,9.977,-0.504,-0.156,-0.403,1851.28,-17.277
8.015,0.0576,0.3828,0.0962,-7.7731,-102.1709,-5.2521,31.0,79822.0,,,,,,,
8.02,,,,,,,,,194.535,9.975,-0.522,-0.241,-0.404,1851.38,-17.239
8.025,0.0337,0.3765,0.0786,-10.5742,-100.4902,-6.3025,31.0,79833.0,,,,,,,
8.03,,,,,,,,,194.473,9.972,-0.533,-0.329,-0.403,1853.8,-17.239
8.035,0.0156,0.3828,0.0923,10.8543,-109.7339,-7.6331,31.0,79794.0,,,,,,,
8.04,,,,,,,,,194.412,9.968,-0.546,-0.416,-0.404,1856.62,-17.239
8.045,0.0273,0.3745,0.0723,-3.9216,-104.3417,-7.493,31.0,79750.0,,,,,,,
8.05,,,,,,,,,194.356,9.963,-0.541,-0.512,-0.405,1860.26,-17.239
8.055,0.0005,0.3667,0.0728,-7.6331,-103.1513,-6.1625,31.0,79742.0,,,,,,,
8.06,,,,,,,,,194.297,9.958,-0.549,-0.603,-0.407,1861.77,-17.21
8.065,0.0557,0.3711,0.0859,-0.3501,-107.6331,-5.4622,31.0,79729.0,,,,,,,
8.07,,,,,,,,,194.234,9.951,-0.559,-0.692,-0.407,1862.28,-17.201
8.075,0.0083,0.3745,0.0737,3.1513,-107.7031,-5.8123,31.0,79723.0,,,,,,,
8.08,,,,,,,,,194.168,9.944,-0.564,-0.786,-0.407,1863.39,-17.191
8.085,0.0444,0.3784,0.1172,7.7031,-108.8235,-6.6527,31.0,79694.0,,,,,,,
8.09,,,,,,,,,194.104,9.936,-0.565,-0.879,-0.406,1866.22,-17.125
8.095,0.022,0.3691,0.0679,-3.3613,-101.6807,-6.5126,31.0,79647.0,,,,,,,
8.1,,,,,,,,,194.047,9.928,-0.563,-0.974,-0.406,1870.66,-17.125
8.105,0.0088,0.3706,0.082,2.7311,-106.0224,-6.0224,31.0,79660.0,,,,,,,
8.11,,,,,,,,,193.985,9.918,-0.57,-1.062,-0.407,1871.47,-17.087
8.115,0.0298,0.3711,0.0835,4.2017,-108.9636,-5.042,31.0,79612.0,,,,,,,
8.12,,,,,,,,,193.921,9.908,-0.571,-1.154,-0.406,1872.78,-17.087
8.125,0.0205,0.373,0.0977,-5.042,-106.0224,-4.972,31.0,79626.0,,,,,,,
8.13,,,,,,,,,193.854,9.896,-0.572,-1.248,-0.405,1873.39,-17.02
8.135,0.0513,0.3716,0.0874,1.0504,-106.9328,-5.7423,31.0,79573.0,,,,,,,
8.14,,,,,,,,,193.788,9.884,-0.58,-1.34,-0.404,1876.32,-17.02
8.145,0.0005,0.3672,0.0737,0.1401,-105.7423,-6.0924,31.0,79584.0,,,,,,,
8.15,,,,,,,,,193.725,9.871,-0.583,-1.432,-0.403,1879.76,-17.02
8.155,0.0249,0.3745,0.0845,5.3221,-108.1232,-5.6723,31.0,79531.0,,,,,,,
8.16,,,,,,,,,193.66,9.857,-0.587,-1.523,-0.403,1881.07,-17.02
8.165,0.0254,0.3618,0.082,5.3221,-110.5742,-5.3922,31.1,79531.0,,,,,,,
8.17,,,,,,,,,193.595,9.842,-0.586,-1.616,-0.402,1883.2,-17.03
8.175,0.0312,0.3613,0.0864,-0.7703,-106.1625,-5.6723,31.0,79514.0,,,,,,,
8.18,,,,,,,,,193.528,9.826,-0.585,-1.711,-0.4,1884.61,-17.02
8.185,0.0337,0.3584,0.062,16.1064,-113.9356,-6.3025,31.0,79470.0,,,,,,,
8.19,,,,,,,,,193.462,9.81,-0.589,-1.802,-0.399,1887.45,-17.011
8.195,0.0137,0.3589,0.1079,4.6218,-108.2633,-6.5126,31.0,79465.0,,,,,,,
8.2,,,,,,,,,193.393,9.792,-0.579,-1.9,-0.396,1888.56,-17.011
8.205,0.0269,0.3633,0.0698,5.9524,-109.944,-6.3025,31.0,79443.0,,,,,,,
8.21,,,,,,,,,193.331,9.774,-0.579,-1.993,-0.395,1892.81,-16.945
8.215,0.0225,0.3584,0.0752,-0.4902,-105.8123,-5.8123,31.0,79448.0,,,,,,,
8.22,,,,,,,,,193.263,9.754,-0.577,-2.087,-0.394,1892.81,-16.869
8.225,0.0273,0.3677,0.1001,9.6639,-108.8936,-5.6022,31.0,79408.0,,,,,,,
8.23,,,,,,,,,193.194,9.734,-0.581,-2.177,-0.394,1894.54,-16.84
