ts,Ax,Ay,Az,Gx,Gy,Gz,T,P,velocity,q0_estimated,q1_estimated,q2_estimated,q3_estimated,filtered_altitude_AGL,filtered_acceleration
-0.75,,,,,,,,,0.133,1.35,8.63,-4.831,-0.59,0.91,0.028
-0.745,0.0034,-0.5078,0.0649,-0.2801,-1.0504,-0.1401,44.6,99961.0,,,,,,,
-0.74,,,,,,,,,0.149,1.35,8.63,-4.831,-0.59,0.9,0.028
-0.735,0.0039,-0.5059,0.0649,-0.2801,-1.1204,-0.1401,44.6,100001.0,,,,,,,
-0.73,,,,,,,,,0.166,1.35,8.63,-4.831,-0.59,0.91,0.028
-0.725,0.0029,-0.5078,0.0654,-0.2801,-1.0504,-0.1401,44.6,100007.0,,,,,,,
-0.72,,,,,,,,,0.182,1.35,8.63,-4.831,-0.59,0.9,0.028
-0.715,0.0034,-0.5059,0.0664,-0.2101,-1.1204,-0.1401,44.6,99996.0,,,,,,,
-0.71,,,,,,,,,0.198,1.35,8.63,-4.831,-0.59,0.9,0.028
-0.705,0.0044,-0.5078,0.0688,-0.2101,-1.1204,-0.1401,44.6,99963.0,,,,,,,
-0.7,,,,,,,,,0.204,1.35,8.63,-4.831,-0.59,0.48,0.028
-0.695,0.0039,-0.5083,0.0669,-0.2101,-1.1204,-0.1401,44.6,99953.0,,,,,,,
-0.69,,,,,,,,,0.21,1.35,8.63,-4.831,-0.59,0.48,0.028
-0.685,0.0044,-0.5078,0.0654,-0.2801,-1.1905,-0.1401,44.6,99971.0,,,,,,,
-0.68,,,,,,,,,0.225,1.349,8.63,-4.831,-0.59,0.9,0.028
-0.675,0.0034,-0.5083,0.0669,-0.5602,-1.2605,-0.07,44.6,99977.0,,,,,,,
-0.67,,,,,,,,,0.235,1.349,8.63,-4.831,-0.59,0.65,0.028
-0.665,0.0034,-0.5063,0.0654,-0.3501,-1.2605,-0.1401,44.6,99972.0,,,,,,,
-0.66,,,,,,,,,0.233,1.349,8.63,-4.831,-0.59,0.14,0.028
-0.655,0.0029,-0.5078,0.0649,-0.1401,-1.2605,-0.1401,44.6,99979.0,,,,,,,
-0.65,,,,,,,,,0.24,1.349,8.63,-4.831,-0.59,0.56,0.028
-0.645,0.0024,-0.5063,0.063,-0.2801,-1.0504,-0.1401,44.6,99998.0,,,,,,,
-0.64,,,,,,,,,0.238,1.349,8.63,-4.831,-0.59,0.14,0.028
-0.635,0.0039,-0.5063,0.0625,-0.2101,-0.9804,-0.1401,44.6,99994.0,,,,,,,
-0.63,,,,,,,,,0.236,1.349,8.63,-4.831,-0.59,0.14,0.028
-0.625,0.002,-0.5078,0.0635,-0.2101,-0.9104,-0.1401,44.6,99974.0,,,,,,,
-0.62,,,,,,,,,0.234,1.349,8.63,-4.831,-0.59,0.14,0.028
-0.615,0.0054,-0.5073,0.0659,-0.3501,-0.8403,-0.1401,44.6,99995.0,,,,,,,
-0.61,,,,,,,,,0.238,1.349,8.63,-4.831,-0.59,0.4,0.028
-0.605,0.0029,-0.5073,0.0674,-0.3501,-0.9804,-0.1401,44.6,99966.0,,,,,,,
-0.6,,,,,,,,,0.236,1.349,8.63,-4.83,-0.59,0.14,0.028
-0.595,0.0078,-0.5083,0.0684,-0.4902,-1.0504,-0.1401,44.6,99964.0,,,,,,,
-0.59,,,,,,,,,0.234,1.349,8.63,-4.83,-0.59,0.14,0.019
-0.585,0.0024,-0.5078,0.0679,-0.2101,-1.2605,-0.1401,44.6,99980.0,,,,,,,
-0.58,,,,,,,,,0.232,1.349,8.63,-4.83,-0.59,0.14,0.019
-0.575,0.0059,-0.5063,0.0659,0.0,-1.4006,-0.1401,44.6,99981.0,,,,,,,
-0.57,,,,,,,,,0.226,1.349,8.63,-4.83,-0.59,-0.03,0.019
-0.565,0.0015,-0.5059,0.0669,-0.4202,-1.2605,-0.1401,44.6,99994.0,,,,,,,
-0.56,,,,,,,,,0.219,1.348,8.63,-4.83,-0.59,-0.11,0.019
-0.555,0.0015,-0.5073,0.0649,-0.3501,-1.2605,-0.1401,44.6,99968.0,,,,,,,
-0.55,,,,,,,,,0.21,1.348,8.63,-4.83,-0.59,-0.19,0.019
-0.545,0.0034,-0.5083,0.0635,-0.3501,-1.0504,-0.1401,44.6,99994.0,,,,,,,
-0.54,,,,,,,,,0.202,1.348,8.63,-4.83,-0.59,-0.11,0.019
-0.535,0.0029,-0.5049,0.063,-0.2101,-1.0504,-0.07,44.6,99973.0,,,,,,,
-0.53,,,,,,,,,0.195,1.348,8.63,-4.83,-0.59,-0.11,0.019
-0.525,0.0039,-0.5063,0.0625,-0.2101,-0.9804,-0.07,44.6,99951.0,,,,,,,
-0.52,,,,,,,,,0.188,1.348,8.63,-4.831,-0.59,-0.11,0.019
-0.515,0.0024,-0.5078,0.0635,-0.1401,-0.9804,-0.1401,44.6,99997.0,,,,,,,
-0.51,,,,,,,,,0.194,1.348,8.63,-4.831,-0.59,0.48,0.019
-0.505,0.0063,-0.5078,0.0645,-0.1401,-0.9104,-0.1401,44.6,99990.0,,,,,,,
-0.5,,,,,,,,,0.187,1.348,8.631,-4.831,-0.59,-0.11,0.019
-0.495,0.0044,-0.5078,0.0654,-0.2101,-0.9804,-0.1401,44.6,99989.0,,,,,,,
-0.49,,,,,,,,,0.179,1.348,8.631,-4.831,-0.59,-0.19,0.019
-0.485,0.0029,-0.5073,0.0659,-0.07,-1.1204,-0.1401,44.6,100007.0,,,,,,,
-0.48,,,,,,,,,0.156,1.348,8.631,-4.83,-0.589,-0.86,0.019
-0.475,0.0049,-0.5063,0.0684,-0.1401,-1.1204,-0.1401,44.6,99983.0,,,,,,,
-0.47,,,,,,,,,0.132,1.347,8.631,-4.83,-0.589,-0.95,0.019
-0.465,0.0015,-0.5073,0.0669,-0.2101,-1.2605,-0.1401,44.6,99972.0,,,,,,,
-0.46,,,,,,,,,0.11,1.347,8.631,-4.831,-0.589,-0.86,0.019
-0.455,0.0063,-0.5068,0.0669,-0.2101,-1.2605,-0.1401,44.6,99985.0,,,,,,,
-0.45,,,,,,,,,0.089,1.347,8.631,-4.831,-0.589,-0.86,0.019
-0.445,0.0044,-0.5068,0.0645,-0.2801,-1.2605,-0.07,44.6,99967.0,,,,,,,
-0.44,,,,,,,,,0.075,1.347,8.631,-4.831,-0.59,-0.52,0.019
-0.435,0.0024,-0.5093,0.0635,-0.2101,-1.1204,-0.1401,44.6,99984.0,,,,,,,
-0.43,,,,,,,,,0.062,1.346,8.631,-4.831,-0.59,-0.52,0.019
-0.425,0.0039,-0.5068,0.064,-0.2101,-1.1905,-0.1401,44.6,99982.0,,,,,,,
-0.42,,,,,,,,,0.048,1.346,8.631,-4.831,-0.59,-0.52,0.019
-0.415,0.0049,-0.5083,0.0645,-0.2101,-1.1204,-0.07,44.6,99976.0,,,,,,,
-0.41,,,,,,,,,0.037,1.346,8.631,-4.831,-0.59,-0.44,0.019
-0.405,0.0029,-0.5054,0.0649,-0.3501,-1.0504,-0.07,44.6,99989.0,,,,,,,
-0.4,,,,,,,,,0.028,1.346,8.631,-4.831,-0.59,-0.35,0.019
-0.395,0.0044,-0.5063,0.0659,-0.2801,-1.0504,-0.1401,44.6,100019.0,,,,,,,
-0.39,,,,,,,,,0.019,1.346,8.631,-4.831,-0.59,-0.35,0.009
-0.385,0.0024,-0.5063,0.0674,-0.2101,-0.9804,-0.1401,44.6,99967.0,,,,,,,
-0.38,,,,,,,,,0.01,1.346,8.631,-4.831,-0.59,-0.35,0.009
-0.375,0.0039,-0.5088,0.0684,-0.2101,-0.9804,-0.07,44.6,99984.0,,,,,,,
-0.37,,,,,,,,,0.003,1.346,8.631,-4.831,-0.589,-0.27,0.009
-0.365,0.0015,-0.5068,0.0674,-0.2801,-0.9804,-0.1401,44.6,99980.0,,,,,,,
-0.36,,,,,,,,,-0.007,1.346,8.631,-4.831,-0.589,-0.43,0.009
-0.355,0.0049,-0.5078,0.0649,-0.2801,-0.9104,-0.1401,44.6,99993.0,,,,,,,
-0.35,,,,,,,,,-0.013,1.346,8.631,-4.831,-0.589,-0.27,0.009
-0.345,0.0039,-0.5073,0.0649,-0.2801,-1.0504,-0.07,44.6,99969.0,,,,,,,
-0.34,,,,,,,,,-0.023,1.346,8.631,-4.831,-0.589,-0.43,0.009
-0.335,0.0024,-0.5073,0.0635,-0.2801,-1.1905,-0.07,44.6,99978.0,,,,,,,
-0.33,,,,,,,,,-0.029,1.346,8.631,-4.831,-0.589,-0.27,0.009
-0.325,0.0039,-0.5083,0.064,-0.2801,-1.3305,-0.07,44.6,99966.0,,,,,,,
-0.32,,,,,,,,,-0.032,1.345,8.631,-4.831,-0.589,-0.09,0.019
-0.315,0.0015,-0.5059,0.063,-0.2801,-1.3305,-0.1401,44.6,99979.0,,,,,,,
-0.31,,,,,,,,,-0.034,1.345,8.631,-4.831,-0.589,-0.09,0.019
-0.305,0.0063,-0.5059,0.0625,-0.3501,-1.4006,-0.1401,44.6,99969.0,,,,,,,
-0.3,,,,,,,,,-0.034,1.345,8.631,-4.831,-0.589,-0.01,0.019
-0.295,0.0,-0.5073,0.064,-0.2801,-1.4706,-0.07,44.6,99991.0,,,,,,,
-0.29,,,,,,,,,-0.033,1.345,8.631,-4.831,-0.59,0.08,0.019
-0.285,0.0054,-0.5083,0.0654,-0.2101,-1.1905,-0.1401,44.6,99954.0,,,,,,,
-0.28,,,,,,,,,-0.033,1.345,8.631,-4.831,-0.59,-0.01,0.019
-0.275,0.0015,-0.5083,0.064,-0.1401,-1.0504,-0.1401,44.6,99991.0,,,,,,,
-0.27,,,,,,,,,-0.032,1.345,8.631,-4.831,-0.59,0.08,0.019
-0.265,0.0049,-0.5068,0.0674,-0.1401,-0.8403,-0.2101,44.6,99984.0,,,,,,,
-0.26,,,,,,,,,-0.031,1.344,8.631,-4.831,-0.59,0.08,0.019
-0.255,-0.0005,-0.5059,0.0664,-0.2801,-0.9104,-0.1401,44.6,99999.0,,,,,,,
-0.25,,,,,,,,,-0.029,1.344,8.631,-4.831,-0.59,0.08,0.019
-0.245,0.0054,-0.5083,0.0674,-0.2801,-0.7703,-0.1401,44.6,99962.0,,,,,,,
-0.24,,,,,,,,,-0.03,1.344,8.631,-4.831,-0.589,-0.01,0.019
-0.235,0.0039,-0.5063,0.0645,-0.2801,-0.7703,-0.1401,44.6,99981.0,,,,,,,
-0.23,,,,,,,,,-0.03,1.344,8.631,-4.831,-0.589,-0.01,0.019
-0.225,0.0005,-0.5068,0.0649,-0.2801,-0.9104,-0.2101,44.6,99963.0,,,,,,,
-0.22,,,,,,,,,-0.034,1.344,8.631,-4.831,-0.589,-0.18,0.009
-0.215,0.0059,-0.5078,0.0654,-0.1401,-1.2605,-0.1401,44.6,99987.0,,,,,,,
-0.21,,,,,,,,,-0.038,1.344,8.631,-4.831,-0.589,-0.18,0.009
-0.205,0.0034,-0.5068,0.0645,-0.2101,-1.3305,-0.1401,44.6,99989.0,,,,,,,
-0.2,,,,,,,,,-0.048,1.344,8.631,-4.831,-0.589,-0.43,0.019
-0.195,0.0078,-0.5073,0.062,-0.4202,-1.3305,-0.1401,44.6,99947.0,,,,,,,
-0.19,,,,,,,,,-0.057,1.344,8.631,-4.831,-0.589,-0.43,0.009
-0.185,-0.001,-0.5093,0.062,-0.1401,-1.6106,-0.1401,44.6,99988.0,,,,,,,
-0.18,,,,,,,,,-0.066,1.344,8.631,-4.831,-0.589,-0.43,0.009
-0.175,0.0044,-0.5122,0.0679,-0.07,-1.2605,-0.1401,44.6,99985.0,,,,,,,
-0.17,,,,,,,,,-0.074,1.343,8.631,-4.831,-0.59,-0.43,0.009
-0.165,-0.0015,-0.5098,0.0698,-0.07,-1.1204,-0.1401,44.6,99981.0,,,,,,,
-0.16,,,,,,,,,-0.084,1.343,8.631,-4.831,-0.59,-0.52,0.019
-0.155,0.0029,-0.5137,0.0688,0.6303,-0.7003,-0.1401,44.6,99984.0,,,,,,,
-0.15,,,,,,,,,-0.087,1.343,8.631,-4.831,-0.59,-0.18,0.028
-0.145,-0.0005,-0.5107,0.062,0.4202,-0.2801,-0.1401,44.6,99978.0,,,,,,,
-0.14,,,,,,,,,-0.095,1.342,8.631,-4.831,-0.589,-0.43,0.028
-0.135,0.0015,-0.5098,0.0635,-0.7703,0.4902,-0.1401,44.6,99995.0,,,,,,,
-0.13,,,,,,,,,-0.103,1.342,8.631,-4.831,-0.588,-0.43,0.057
-0.125,-0.0044,-0.583,0.0693,0.1401,0.6303,-0.2101,44.6,100000.0,,,,,,,
-0.12,,,,,,,,,-0.112,1.343,8.632,-4.83,-0.587,-0.52,0.066
-0.115,-0.002,-0.9204,0.0649,-0.7003,0.9104,0.0,44.6,100008.0,,,,,,,
-0.11,,,,,,,,,-0.121,1.343,8.632,-4.83,-0.585,-0.52,0.066
-0.105,-0.0039,-1.5972,0.1016,-0.3501,0.2101,0.07,44.6,100020.0,,,,,,,
-0.1,,,,,,,,,-0.129,1.344,8.632,-4.83,-0.584,-0.52,0.085
-0.095,-0.022,-3.3267,0.1309,1.8207,-0.4202,-0.2101,44.6,99987.0,,,,,,,
-0.09,,,,,,,,,-0.143,1.345,8.632,-4.83,-0.583,-0.77,0.114
-0.085,-0.0112,-4.2749,0.1147,1.4006,-0.9104,-0.3501,44.6,99988.0,,,,,,,
-0.08,,,,,,,,,-0.153,1.343,8.632,-4.83,-0.582,-0.67,0.142
-0.075,-0.02,-4.9131,0.1323,-1.6106,-0.3501,-0.2801,44.6,100000.0,,,,,,,
-0.07,,,,,,,,,-0.152,1.342,8.632,-4.83,-0.581,-0.75,1.485
-0.065,-0.0117,-5.1294,0.126,-0.4902,-0.2101,-0.2801,44.6,100037.0,,,,,,,
-0.06,,,,,,,,,-0.097,1.343,8.632,-4.83,-0.581,-1.35,8.022
-0.055,-0.019,-5.1875,0.1655,0.7003,-2.3109,-0.1401,44.6,100044.0,,,,,,,
-0.05,,,,,,,,,0.08,1.344,8.632,-4.829,-0.58,-1.76,21.134
-0.045,-0.0317,-5.209,0.1221,-0.1401,-2.3109,-0.1401,44.6,100034.0,,,,,,,
-0.04,,,,,,,,,0.593,1.342,8.633,-4.83,-0.581,-1.77,54.641
-0.035,-0.0181,-5.2021,0.1484,1.4006,-0.6303,-0.2101,44.6,99974.0,,,,,,,
-0.03,,,,,,,,,1.276,1.342,8.632,-4.83,-0.582,-2.44,73.012
-0.025,-0.0127,-5.2046,0.1177,-0.4202,-0.9804,-0.6303,44.6,99944.0,,,,,,,
-0.02,,,,,,,,,2.083,1.341,8.633,-4.83,-0.581,-2.44,85.376
-0.015,-0.019,-5.2583,0.1572,-0.7703,-3.1513,-1.1905,44.6,99983.0,,,,,,,
-0.01,,,,,,,,,2.946,1.341,8.633,-4.829,-0.581,-1.76,89.567
-0.005,-0.0083,-5.2544,0.1499,0.5602,-5.7423,-1.3305,44.6,99996.0,,,,,,,
0.0,,,,,,,,,3.843,1.34,8.633,-4.829,-0.583,-0.75,90.693
0.005,-0.02,-5.2627,0.1777,-0.8403,-6.9328,-1.4706,44.6,99925.0,,,,,,,
0.01,,,,,,,,,4.752,10.0,0.0,-0.004,-0.001,-1.39,90.977
0.015,0.0005,-5.2944,0.1313,0.07,-9.8739,-1.8908,44.6,99986.0,,,,,,,
0.02,,,,,,,,,5.662,9.999,0.0,-0.009,-0.002,-1.39,91.024
0.025,-0.0244,-5.3223,0.1963,-0.1401,-18.8375,-1.4006,44.6,99996.0,,,,,,,
0.03,,,,,,,,,6.573,9.999,0.0,-0.016,-0.003,-0.55,91.109
0.035,-0.0093,-5.3506,0.1304,0.4202,-28.5014,-0.6303,44.6,99940.0,,,,,,,
0.04,,,,,,,,,7.493,9.999,0.0,-0.032,-0.004,-0.55,91.989
0.045,0.02,-5.3521,0.1309,-0.7703,-29.6919,-0.9104,44.6,99952.0,,,,,,,
0.05,,,,,,,,,8.413,9.999,0.001,-0.056,-0.005,-0.3,92.065
0.055,0.0049,-5.3354,0.1572,-1.9608,-30.1821,-0.8403,44.6,99882.0,,,,,,,
0.06,,,,,,,,,9.335,9.999,0.001,-0.081,-0.006,0.46,92.15
0.065,-0.0156,-5.3174,0.1738,-0.8403,-31.5126,-0.4902,44.6,100028.0,,,,,,,
0.07,,,,,,,,,10.262,9.999,0.0,-0.106,-0.006,2.31,92.765
0.075,-0.021,-5.3481,0.1382,-0.5602,-26.6106,-0.8403,44.6,100000.0,,,,,,,
0.08,,,,,,,,,11.194,9.999,0.0,-0.133,-0.007,-0.3,93.209
0.085,0.0024,-5.2861,0.4922,-4.4818,-24.4398,-1.0504,44.6,99942.0,,,,,,,
0.09,,,,,,,,,12.127,9.998,0.0,-0.155,-0.007,-0.55,93.304
0.095,-0.1401,-5.3423,0.1016,-3.7115,-32.0728,-0.2101,44.6,99974.0,,,,,,,
0.1,,,,,,,,,13.06,9.998,-0.004,-0.176,-0.008,2.31,93.304
0.105,-0.0161,-5.4932,0.2861,-4.6919,-48.3193,-1.1204,44.6,99959.0,,,,,,,
0.11,,,,,,,,,13.995,9.997,-0.007,-0.203,-0.008,0.46,93.559
0.115,0.002,-5.2275,0.1821,-6.1625,-55.6022,-1.4706,44.6,99927.0,,,,,,,
0.12,,,,,,,,,14.932,9.997,-0.01,-0.244,-0.009,1.72,93.692
0.125,-0.104,-5.4897,0.0562,-4.4818,-53.4314,-2.381,44.6,99938.0,,,,,,,
0.13,,,,,,,,,15.869,9.995,-0.016,-0.291,-0.01,2.31,93.692
0.135,-0.1357,-5.46,0.1558,-4.4118,-41.3866,-3.5014,44.6,99963.0,,,,,,,
0.14,,,,,,,,,16.805,9.994,-0.019,-0.337,-0.012,2.31,93.692
0.145,0.0024,-5.4473,0.0229,-4.6919,-35.5042,-3.4314,44.6,99970.0,,,,,,,
0.15,,,,,,,,,17.742,9.993,-0.023,-0.372,-0.015,1.72,93.692
0.155,-0.0635,-5.2407,-0.0752,-6.5826,-29.0616,-2.0308,44.6,99946.0,,,,,,,
0.16,,,,,,,,,18.68,9.991,-0.026,-0.402,-0.018,1.39,93.805
0.165,-0.1235,-5.2578,0.564,0.7003,-20.7283,-1.7507,44.6,99951.0,,,,,,,
0.17,,,,,,,,,19.618,9.99,-0.032,-0.427,-0.02,1.72,93.805
0.175,-0.0562,-5.2031,-0.0127,3.2213,-19.0476,-0.1401,44.6,99954.0,,,,,,,
0.18,,,,,,,,,20.554,9.99,-0.031,-0.444,-0.021,2.4,93.692
0.185,0.0059,-5.1963,0.1543,3.2913,-12.6751,1.4006,44.6,99963.0,,,,,,,
0.19,,,,,,,,,21.491,9.989,-0.028,-0.459,-0.021,2.14,93.692
0.195,-0.1099,-5.2461,0.1294,0.2801,-4.4818,1.1204,44.6,99930.0,,,,,,,
0.2,,,,,,,,,22.412,9.988,-0.024,-0.47,-0.02,2.14,92.055
0.205,-0.1636,-5.3027,0.1934,-2.381,-7.3529,1.1204,44.6,99936.0,,,,,,,
0.21,,,,,,,,,23.33,9.988,-0.024,-0.473,-0.019,2.4,91.828
0.215,0.0122,-5.4004,-0.0962,-0.9104,10.2941,-0.4202,44.6,99947.0,,,,,,,
0.22,,,,,,,,,24.25,9.988,-0.026,-0.478,-0.018,2.4,92.055
0.225,-0.2461,-5.3979,0.7544,-0.6303,20.2381,-2.6611,44.6,99960.0,,,,,,,
0.23,,,,,,,,,25.17,9.988,-0.026,-0.468,-0.018,2.4,92.055
0.235,0.0688,-5.3984,0.021,-1.5406,-1.8207,-3.0812,44.6,99933.0,,,,,,,
0.24,,,,,,,,,26.091,9.989,-0.026,-0.45,-0.02,2.4,92.055
0.245,-0.0693,-5.3633,0.2563,-1.6106,-6.7927,-4.972,44.6,99967.0,,,,,,,
0.25,,,,,,,,,27.011,9.989,-0.027,-0.45,-0.023,2.73,92.055
0.255,0.085,-5.2856,0.2793,-7.3529,3.4314,-5.042,44.6,99933.0,,,,,,,
0.26,,,,,,,,,27.94,9.989,-0.028,-0.455,-0.027,2.4,92.925
0.265,0.0161,-5.1978,0.5229,-3.0112,-5.1821,-3.3613,44.6,99961.0,,,,,,,
0.27,,,,,,,,,28.869,9.989,-0.034,-0.451,-0.032,2.73,92.925
0.275,-0.0645,-5.2241,-0.103,1.2605,-6.1625,0.6303,44.6,99905.0,,,,,,,
0.28,,,,,,,,,29.798,9.989,-0.036,-0.455,-0.035,2.73,92.925
0.285,-0.0654,-5.2378,0.1372,1.1204,-3.0812,2.6611,44.6,99923.0,,,,,,,
0.29,,,,,,,,,30.727,9.989,-0.035,-0.459,-0.034,3.66,92.925
0.295,0.1636,-5.2505,-0.0571,-0.2101,15.9664,2.3109,44.6,99883.0,,,,,,,
0.3,,,,,,,,,31.656,9.989,-0.034,-0.461,-0.031,3.66,92.925
0.305,0.0811,-5.3291,0.2109,1.8908,31.7227,3.9916,44.6,99921.0,,,,,,,
0.31,,,,,,,,,32.581,9.989,-0.033,-0.446,-0.029,3.91,92.594
0.315,-0.124,-5.2847,0.1733,-4.4818,57.8431,4.6218,44.6,99905.0,,,,,,,
0.32,,,,,,,,,33.507,9.991,-0.032,-0.418,-0.026,3.91,92.594
0.325,0.1167,-5.3394,0.0669,-1.7507,74.7199,4.5518,44.6,99878.0,,,,,,,
0.33,,,,,,,,,34.433,9.993,-0.035,-0.366,-0.022,4.75,92.575
0.335,0.0166,-5.4351,0.2754,0.5602,95.098,3.7815,44.6,99907.0,,,,,,,
0.34,,,,,,,,,35.358,9.995,-0.036,-0.3,-0.018,4.92,92.575
0.345,-0.063,-5.2886,0.1997,-3.5014,103.2213,4.6218,44.6,99891.0,,,,,,,
0.35,,,,,,,,,36.283,9.997,-0.036,-0.216,-0.015,6.1,92.575
0.355,-0.1016,-5.2271,-0.0044,-4.4818,105.042,3.8515,44.6,99882.0,,,,,,,
0.36,,,,,,,,,37.209,9.999,-0.038,-0.126,-0.011,6.27,92.575
0.365,0.0903,-5.1216,0.5254,-6.0924,107.9132,0.7003,44.6,99879.0,,,,,,,
0.37,,,,,,,,,38.134,9.999,-0.042,-0.033,-0.008,6.27,92.575
0.375,0.0615,-5.0859,0.5391,-7.493,118.1373,-0.3501,44.6,99868.0,,,,,,,
0.38,,,,,,,,,39.06,9.999,-0.047,0.061,-0.008,7.45,92.575
0.385,-0.0386,-5.2466,0.2358,-4.0616,118.3473,-2.8011,44.6,99873.0,,,,,,,
0.39,,,,,,,,,39.985,9.998,-0.053,0.165,-0.009,8.12,92.575
0.395,0.0332,-5.1582,-0.0776,-7.2129,110.8543,-3.1513,44.6,99876.0,,,,,,,
0.4,,,,,,,,,40.911,9.996,-0.056,0.269,-0.011,8.2,92.575
0.405,0.0562,-5.1284,0.1504,-3.5714,87.3249,-2.9412,44.6,99858.0,,,,,,,
0.41,,,,,,,,,41.829,9.993,-0.062,0.367,-0.015,8.46,91.838
0.415,0.002,-5.2476,0.3613,-2.521,68.1373,-2.6611,44.6,99874.0,,,,,,,
0.42,,,,,,,,,42.743,9.989,-0.065,0.444,-0.017,8.54,91.459
0.425,0.0005,-5.271,-0.0059,-2.7311,66.5266,-3.5014,44.6,99855.0,,,,,,,
0.43,,,,,,,,,43.658,9.987,-0.066,0.504,-0.02,8.71,91.459
0.435,0.0239,-5.2627,-0.0625,-3.0112,66.5266,-3.7815,44.6,99859.0,,,,,,,
0.44,,,,,,,,,44.572,9.983,-0.069,0.563,-0.023,8.88,91.459
0.445,0.0049,-5.2622,0.2031,-2.9412,65.4762,-4.4118,44.6,99840.0,,,,,,,
0.45,,,,,,,,,45.486,9.98,-0.071,0.622,-0.027,8.96,91.459
0.455,-0.0205,-5.2734,0.2148,-2.8711,65.4062,-4.6218,44.6,99846.0,,,,,,,
0.46,,,,,,,,,46.404,9.976,-0.073,0.68,-0.031,9.38,91.838
0.465,0.0366,-5.2725,0.0215,-2.8711,65.6162,-5.112,44.6,99829.0,,,,,,,
0.47,,,,,,,,,47.322,9.972,-0.075,0.737,-0.035,10.14,91.856
0.475,0.0215,-5.2563,0.0308,-3.2213,64.7059,-5.6723,44.6,99849.0,,,,,,,
0.48,,,,,,,,,48.243,9.967,-0.078,0.795,-0.039,10.22,92.14
0.485,-0.0264,-5.2344,0.1948,-3.0812,64.6359,-6.3025,44.6,99823.0,,,,,,,
0.49,,,,,,,,,49.164,9.963,-0.08,0.853,-0.045,10.48,92.14
0.495,0.0112,-5.2471,0.1553,-2.8711,65.4062,-6.6527,44.6,99860.0,,,,,,,
0.5,,,,,,,,,50.085,9.958,-0.083,0.91,-0.05,10.98,92.14
0.505,0.0327,-5.2461,0.0112,-2.8011,64.7059,-7.2829,44.6,99822.0,,,,,,,
0.51,,,,,,,,,51.006,9.952,-0.085,0.967,-0.056,10.98,92.14
0.515,-0.0127,-5.2178,0.1152,-3.0112,64.8459,-7.9832,44.6,99825.0,,,,,,,
0.52,,,,,,,,,51.927,9.946,-0.088,1.024,-0.063,11.24,92.14
0.525,-0.0029,-5.2188,0.1904,-2.9412,64.916,-8.4734,44.6,99827.0,,,,,,,
0.53,,,,,,,,,52.846,9.94,-0.09,1.081,-0.07,11.74,92.027
0.535,0.0103,-5.2197,0.0859,-2.8011,65.1961,-8.9636,44.6,99828.0,,,,,,,
0.54,,,,,,,,,53.764,9.934,-0.093,1.139,-0.077,12.67,91.847
0.545,-0.0063,-5.231,0.0513,-2.9412,65.2661,-9.5238,44.6,99813.0,,,,,,,
0.55,,,,,,,,,54.682,9.927,-0.095,1.196,-0.085,12.75,91.828
0.555,-0.0093,-5.2368,0.1807,-3.1513,64.7759,-10.014,44.6,99789.0,,,,,,,
0.56,,,,,,,,,55.597,9.92,-0.098,1.253,-0.094,12.84,91.601
0.565,0.0034,-5.208,0.1514,-2.9412,64.5658,-10.3641,44.6,99804.0,,,,,,,
0.57,,,,,,,,,56.513,9.912,-0.101,1.31,-0.102,13.0,91.601
0.575,-0.0259,-5.1895,0.0562,-2.6611,63.8655,-10.5742,44.6,99781.0,,,,,,,
0.58,,,,,,,,,57.427,9.904,-0.104,1.367,-0.112,13.17,91.535
0.585,0.0078,-5.187,0.124,-2.6611,63.5854,-11.1345,44.6,99786.0,,,,,,,
0.59,,,,,,,,,58.339,9.896,-0.106,1.423,-0.121,13.26,91.317
0.595,-0.0186,-5.2183,0.1035,-2.1709,62.605,-11.4846,44.5,99751.0,,,,,,,
0.6,,,,,,,,,59.251,9.888,-0.109,1.478,-0.131,14.02,91.298
0.605,-0.0005,-5.231,0.0708,-1.8207,61.9748,-11.7647,44.6,99795.0,,,,,,,
0.61,,,,,,,,,60.163,9.88,-0.111,1.533,-0.141,14.77,91.289
0.615,-0.0122,-5.2358,0.165,-1.8207,61.6947,-12.0448,44.6,99746.0,,,,,,,
0.62,,,,,,,,,61.075,9.871,-0.113,1.587,-0.151,15.53,91.298
0.625,-0.0044,-5.2153,0.1694,-1.3305,61.5546,-12.1148,44.6,99774.0,,,,,,,
0.63,,,,,,,,,61.987,9.862,-0.115,1.641,-0.162,16.04,91.317
0.635,-0.0049,-5.2266,0.0806,-1.6106,61.0644,-12.0448,44.6,99763.0,,,,,,,
0.64,,,,,,,,,62.899,9.852,-0.117,1.695,-0.173,16.29,91.289
0.645,0.0078,-5.2046,0.1172,-1.4006,59.3838,-12.465,44.6,99728.0,,,,,,,
0.65,,,,,,,,,63.811,9.843,-0.119,1.748,-0.184,16.71,91.289
0.655,0.001,-5.2021,0.1851,-0.9804,58.6134,-12.9552,44.6,99745.0,,,,,,,
0.66,,,,,,,,,64.722,9.833,-0.121,1.8,-0.195,17.3,91.232
0.665,-0.0229,-5.2397,0.1196,-1.0504,58.0532,-13.2353,44.6,99749.0,,,,,,,
0.67,,,,,,,,,65.633,9.824,-0.122,1.851,-0.206,18.23,91.232
0.675,0.0098,-5.2266,0.1079,-0.8403,57.563,-13.6555,44.6,99750.0,,,,,,,
0.68,,,,,,,,,66.545,9.814,-0.124,1.902,-0.218,19.24,91.289
0.685,-0.0269,-5.2383,0.1802,-0.7703,56.8627,-14.1457,44.6,99717.0,,,,,,,
0.69,,,,,,,,,67.458,9.804,-0.126,1.952,-0.23,19.32,91.45
0.695,-0.0312,-5.2573,0.1553,-0.2801,56.8627,-14.3557,44.6,99734.0,,,,,,,
0.7,,,,,,,,,68.372,9.793,-0.127,2.001,-0.243,19.41,91.45
0.705,-0.0054,-5.2378,0.1079,0.1401,56.7927,-14.4958,44.6,99712.0,,,,,,,
0.71,,,,,,,,,69.285,9.783,-0.128,2.05,-0.256,19.66,91.45
0.715,-0.041,-5.2466,0.1553,0.4202,56.4426,-14.7759,44.6,99733.0,,,,,,,
0.72,,,,,,,,,70.197,9.772,-0.129,2.099,-0.269,19.75,91.45
0.725,-0.0366,-5.2637,0.1714,0.8403,56.5826,-14.7759,44.6,99662.0,,,,,,,
0.73,,,,,,,,,71.112,9.761,-0.13,2.148,-0.282,20.67,91.667
0.735,-0.0332,-5.2559,0.1172,0.8403,56.8627,-14.8459,44.5,99671.0,,,,,,,
0.74,,,,,,,,,72.027,9.75,-0.13,2.197,-0.295,20.76,91.677
0.745,-0.0645,-5.2485,0.1323,1.3305,57.493,-14.916,44.6,99681.0,,,,,,,
0.75,,,,,,,,,72.942,9.738,-0.13,2.246,-0.309,20.76,91.705
0.755,-0.0269,-5.2383,0.1743,1.7507,57.6331,-15.056,44.6,99673.0,,,,,,,
0.76,,,,,,,,,73.859,9.726,-0.13,2.296,-0.322,22.11,91.838
0.765,-0.0591,-5.2383,0.1226,1.9608,57.423,-14.986,44.6,99658.0,,,,,,,
0.77,,,,,,,,,74.775,9.714,-0.13,2.345,-0.336,22.53,91.838
0.775,-0.0815,-5.2539,0.1235,2.1709,58.1232,-14.7059,44.6,99654.0,,,,,,,
0.78,,,,,,,,,75.692,9.701,-0.129,2.394,-0.35,25.14,91.838
0.785,-0.0449,-5.2563,0.1587,2.591,58.4734,-14.7059,44.6,99657.0,,,,,,,
0.79,,,,,,,,,76.609,9.688,-0.128,2.444,-0.363,25.82,91.875
0.795,-0.0708,-5.2622,0.1484,2.8711,59.1737,-14.4258,44.6,99616.0,,,,,,,
0.8,,,,,,,,,77.526,9.675,-0.127,2.494,-0.377,25.99,91.875
0.805,-0.0918,-5.2979,0.1108,2.9412,60.014,-14.0056,44.6,99607.0,,,,,,,
0.81,,,,,,,,,78.444,9.661,-0.125,2.545,-0.39,26.75,91.979
0.815,-0.0596,-5.3062,0.1519,3.1513,60.5042,-13.5154,44.6,99617.0,,,,,,,
0.82,,,,,,,,,79.362,9.647,-0.123,2.596,-0.403,27.08,92.017
0.825,-0.0742,-5.2905,0.1519,3.6415,60.8543,-13.0252,44.6,99595.0,,,,,,,
0.83,,,,,,,,,80.28,9.633,-0.121,2.647,-0.416,27.17,92.017
0.835,-0.0874,-5.2808,0.1187,4.1317,61.9048,-12.605,44.6,99624.0,,,,,,,
0.84,,,,,,,,,81.198,9.618,-0.119,2.699,-0.429,27.42,92.027
0.845,-0.0542,-5.2627,0.1001,4.0616,62.7451,-12.3249,44.6,99574.0,,,,,,,
0.85,,,,,,,,,82.117,9.602,-0.116,2.752,-0.441,29.95,92.14
0.855,-0.0903,-5.2446,0.1558,4.0616,63.1653,-12.0448,44.6,99591.0,,,,,,,
0.86,,,,,,,,,83.036,9.587,-0.112,2.805,-0.453,30.54,92.15
0.865,-0.0869,-5.2622,0.1138,3.9916,63.7955,-11.4846,44.6,99544.0,,,,,,,
0.87,,,,,,,,,83.955,9.57,-0.109,2.858,-0.464,30.63,92.15
0.875,-0.0781,-5.2856,0.1006,4.2717,64.4958,-10.8543,44.6,99559.0,,,,,,,
0.88,,,,,,,,,84.874,9.554,-0.105,2.912,-0.476,31.39,92.15
0.885,-0.0889,-5.2998,0.1235,4.4818,64.7059,-10.5042,44.6,99552.0,,,,,,,
0.89,,,,,,,,,85.797,9.536,-0.102,2.966,-0.486,32.4,92.5
0.895,-0.0908,-5.3354,0.1499,4.4818,65.4762,-9.944,44.6,99504.0,,,,,,,
0.9,,,,,,,,,86.72,9.519,-0.097,3.021,-0.497,32.74,92.594
0.905,-0.0669,-5.3096,0.1074,4.2017,66.0364,-9.2437,44.6,99508.0,,,,,,,
0.91,,,,,,,,,87.644,9.501,-0.093,3.075,-0.507,34.17,92.594
0.915,-0.1104,-5.2856,0.1255,4.2017,65.8964,-8.5434,44.6,99534.0,,,,,,,
0.92,,,,,,,,,88.567,9.482,-0.089,3.131,-0.516,35.44,92.594
0.925,-0.0664,-5.2705,0.1421,4.0616,67.0168,-8.1232,44.6,99525.0,,,,,,,
0.93,,,,,,,,,89.49,9.463,-0.084,3.186,-0.525,36.03,92.594
0.935,-0.0801,-5.293,0.1138,4.4818,67.577,-7.7731,44.6,99470.0,,,,,,,
0.94,,,,,,,,,90.414,9.444,-0.08,3.242,-0.533,36.71,92.594
0.945,-0.0811,-5.3374,0.1216,3.7815,69.1176,-6.8627,44.6,99471.0,,,,,,,
0.95,,,,,,,,,91.337,9.424,-0.075,3.298,-0.541,37.55,92.594
0.955,-0.105,-5.3184,0.1099,4.2017,69.3277,-6.3025,44.6,99482.0,,,,,,,
0.96,,,,,,,,,92.261,9.403,-0.07,3.355,-0.549,38.31,92.736
0.965,-0.1348,-5.3276,0.0884,4.1317,70.5882,-5.4622,44.6,99461.0,,,,,,,
0.97,,,,,,,,,93.187,9.382,-0.065,3.413,-0.555,39.74,92.869
0.975,-0.0757,-5.3384,0.0947,3.9916,70.6583,-4.902,44.6,99468.0,,,,,,,
0.98,,,,,,,,,94.115,9.361,-0.059,3.471,-0.562,40.08,93.058
0.985,-0.1128,-5.3296,0.1016,3.9916,71.3585,-4.1317,44.6,99440.0,,,,,,,
0.99,,,,,,,,,95.044,9.338,-0.053,3.529,-0.567,41.94,93.228
0.995,-0.124,-5.3472,0.0859,3.3613,71.6387,-3.2913,44.6,99396.0,,,,,,,
1.0,,,,,,,,,95.974,9.316,-0.048,3.588,-0.572,42.87,93.228
1.005,-0.0708,-5.3506,0.0747,3.0112,72.1989,-2.7311,44.6,99425.0,,,,,,,
1.01,,,,,,,,,96.904,9.293,-0.042,3.647,-0.576,42.96,93.408
1.015,-0.1348,-5.3228,0.0923,2.1709,72.8291,-2.1008,44.6,99430.0,,,,,,,
1.02,,,,,,,,,97.835,9.269,-0.036,3.706,-0.58,43.12,93.446
1.025,-0.1006,-5.3247,0.0869,1.7507,73.5994,-1.5406,44.6,99388.0,,,,,,,
1.03,,,,,,,,,98.766,9.245,-0.031,3.765,-0.582,43.72,93.446
1.035,-0.082,-5.3447,0.0703,1.0504,74.0196,-0.9104,44.6,99382.0,,,,,,,
1.04,,,,,,,,,99.697,9.22,-0.026,3.825,-0.584,45.49,93.446
1.045,-0.1465,-5.3447,0.0688,0.3501,74.5798,-0.3501,44.6,99383.0,,,,,,,
1.05,,,,,,,,,100.628,9.195,-0.021,3.886,-0.586,46.34,93.446
1.055,-0.0908,-5.3564,0.0962,-0.4202,75.4202,0.2801,44.6,99331.0,,,,,,,
1.06,,,,,,,,,101.56,9.169,-0.017,3.946,-0.586,46.76,93.616
1.065,-0.0938,-5.3838,0.0566,-1.0504,76.1905,0.8403,44.6,99367.0,,,,,,,
1.07,,,,,,,,,102.494,9.142,-0.013,4.007,-0.586,49.21,93.739
1.075,-0.1221,-5.4526,0.0508,-1.6807,77.0308,1.3305,44.6,99301.0,,,,,,,
1.08,,,,,,,,,103.428,9.115,-0.009,4.069,-0.585,49.89,93.739
1.085,-0.0747,-5.4487,0.0732,-2.2409,77.381,1.9608,44.6,99276.0,,,,,,,
1.09,,,,,,,,,104.361,9.087,-0.006,4.131,-0.583,50.31,93.786
1.095,-0.1055,-5.3979,0.0762,-3.6415,78.4314,2.2409,44.5,99309.0,,,,,,,
1.1,,,,,,,,,105.295,9.059,-0.002,4.193,-0.581,50.39,93.852
1.105,-0.1177,-5.4185,0.0513,-4.6919,79.6919,2.2409,44.6,99261.0,,,,,,,
1.11,,,,,,,,,106.231,9.03,0.0,4.256,-0.578,51.66,93.966
1.115,-0.0757,-5.4038,0.0493,-4.972,81.4426,2.451,44.5,99277.0,,,,,,,
1.12,,,,,,,,,107.172,9.0,0.0,4.32,-0.575,54.71,94.496
1.125,-0.1436,-5.4199,0.084,-6.0924,83.2633,2.9412,44.6,99278.0,,,,,,,
1.13,,,,,,,,,108.116,8.969,0.002,4.385,-0.571,56.57,94.77
1.135,-0.1045,-5.4077,0.0615,-6.3725,84.5238,3.4314,44.5,99269.0,,,,,,,
1.14,,,,,,,,,109.062,8.936,0.003,4.451,-0.566,57.24,94.884
1.145,-0.0708,-5.3921,0.0469,-7.9832,85.7843,3.6415,44.6,99244.0,,,,,,,
1.15,,,,,,,,,110.008,8.903,0.004,4.518,-0.561,59.19,94.959
1.155,-0.1421,-5.3706,0.1108,-8.4034,87.395,4.0616,44.6,99219.0,,,,,,,
1.16,,,,,,,,,110.954,8.869,0.004,4.585,-0.555,59.28,94.959
1.165,-0.0928,-5.3931,0.0928,-9.5238,89.5658,4.5518,44.5,99208.0,,,,,,,
1.17,,,,,,,,,111.9,8.833,0.003,4.654,-0.549,59.36,94.959
1.175,-0.083,-5.4053,0.0454,-10.1541,90.7563,4.902,44.5,99213.0,,,,,,,
1.18,,,,,,,,,112.844,8.796,0.002,4.724,-0.541,59.95,94.884
1.185,-0.126,-5.4375,0.0693,-10.6443,91.5266,4.972,44.6,99192.0,,,,,,,
1.19,,,,,,,,,113.788,8.759,0.001,4.795,-0.533,60.63,94.884
1.195,-0.0898,-5.4697,0.124,-11.9748,93.4874,5.1821,44.6,99164.0,,,,,,,
1.2,,,,,,,,,114.732,8.72,0.0,4.866,-0.525,62.07,94.912
1.205,-0.0752,-5.4478,0.1133,-12.7451,95.2381,5.4622,44.6,99226.0,,,,,,,
1.21,,,,,,,,,115.677,8.68,-0.001,4.938,-0.516,64.19,94.912
1.215,-0.0986,-5.4229,0.063,-11.3445,95.3782,5.6723,44.5,99179.0,,,,,,,
1.22,,,,,,,,,116.621,8.638,-0.004,5.011,-0.507,64.19,94.959
1.225,-0.0552,-5.3877,0.146,-12.605,97.549,5.6723,44.5,99140.0,,,,,,,
1.23,,,,,,,,,117.565,8.596,-0.005,5.084,-0.497,64.69,94.959
1.235,-0.0732,-5.4048,0.1777,-13.3053,98.5294,5.4622,44.6,99151.0,,,,,,,
1.24,,,,,,,,,118.508,8.552,-0.008,5.159,-0.488,65.12,94.912
1.245,-0.0703,-5.4307,0.1113,-14.1457,100.1401,5.3922,44.5,99147.0,,,,,,,
1.25,,,,,,,,,119.451,8.507,-0.011,5.233,-0.478,66.47,94.912
1.255,-0.0532,-5.4546,0.1553,-14.1457,100.9804,5.2521,44.5,99104.0,,,,,,,
1.26,,,,,,,,,120.398,8.461,-0.014,5.309,-0.468,67.57,95.253
1.265,-0.0664,-5.458,0.1978,-13.0952,102.1709,4.8319,44.5,99107.0,,,,,,,
1.27,,,,,,,,,121.345,8.413,-0.018,5.384,-0.457,68.84,95.404
1.275,-0.0449,-5.4688,0.1763,-13.9356,103.7115,4.6218,44.5,99093.0,,,,,,,
1.28,,,,,,,,,122.294,8.365,-0.02,5.46,-0.448,69.94,95.536
1.285,-0.0493,-5.4575,0.2134,-13.7955,105.6022,4.2017,44.5,99069.0,,,,,,,
1.29,,,,,,,,,123.245,8.315,-0.024,5.537,-0.438,70.28,95.735
1.295,-0.02,-5.4312,0.2256,-13.6555,107.2829,3.0112,44.5,99091.0,,,,,,,
1.3,,,,,,,,,124.195,8.263,-0.028,5.615,-0.429,70.88,95.735
1.305,-0.0083,-5.4526,0.1978,-12.3249,107.3529,2.521,44.5,99059.0,,,,,,,
1.31,,,,,,,,,125.142,8.209,-0.032,5.693,-0.42,73.67,95.413
1.315,-0.0225,-5.4517,0.2339,-11.9748,108.5434,1.8908,44.5,99057.0,,,,,,,
1.32,,,,,,,,,126.093,8.155,-0.035,5.771,-0.413,73.93,95.83
1.325,-0.0142,-5.4634,0.2461,-11.5546,109.8039,1.2605,44.5,99066.0,,,,,,,
1.33,,,,,,,,,127.044,8.1,-0.038,5.849,-0.406,74.86,95.83
1.335,-0.0029,-5.4517,0.2319,-10.6443,109.8039,0.4902,44.5,99006.0,,,,,,,
1.34,,,,,,,,,127.994,8.043,-0.041,5.928,-0.399,75.03,95.867
1.345,-0.0137,-5.4478,0.2231,-7.9132,109.1737,-0.3501,44.5,98982.0,,,,,,,
1.35,,,,,,,,,128.944,7.985,-0.044,6.005,-0.394,76.89,95.867
1.355,-0.0098,-5.4453,0.2573,-7.0028,109.6639,-1.0504,44.5,98994.0,,,,,,,
1.36,,,,,,,,,129.893,7.927,-0.046,6.082,-0.391,77.15,95.83
1.365,-0.0366,-5.4565,0.2456,-7.8431,111.4146,-1.8207,44.5,98990.0,,,,,,,
1.37,,,,,,,,,130.842,7.868,-0.047,6.159,-0.388,77.74,95.811
1.375,-0.0444,-5.4287,0.2212,-5.6723,110.8543,-2.3109,44.5,98938.0,,,,,,,
1.38,,,,,,,,,131.789,7.807,-0.05,6.236,-0.386,77.91,95.811
1.385,-0.0396,-5.438,0.2388,-4.6218,110.8543,-2.521,44.5,98949.0,,,,,,,
1.39,,,,,,,,,132.739,7.746,-0.051,6.312,-0.385,82.23,95.811
1.395,-0.0273,-5.4258,0.2642,-4.3417,112.2549,-2.8711,44.5,98941.0,,,,,,,
1.4,,,,,,,,,133.688,7.684,-0.051,6.387,-0.385,83.25,95.811
1.405,-0.041,-5.4185,0.2695,-2.1008,112.1849,-3.2213,44.5,98914.0,,,,,,,
1.41,,,,,,,,,134.635,7.62,-0.051,6.463,-0.385,83.59,95.735
1.415,-0.0601,-5.4028,0.2544,-1.1905,113.3754,-3.4314,44.5,98896.0,,,,,,,
1.42,,,,,,,,,135.582,7.556,-0.05,6.538,-0.386,84.27,95.688
1.425,-0.0508,-5.418,0.2671,0.4902,113.3754,-3.7815,44.5,98914.0,,,,,,,
1.43,,,,,,,,,136.528,7.49,-0.049,6.613,-0.389,87.07,95.546
1.435,-0.0874,-5.3901,0.2793,1.1905,115.056,-3.9216,44.5,98881.0,,,,,,,
1.44,,,,,,,,,137.472,7.423,-0.047,6.688,-0.392,87.75,95.366
1.445,-0.0894,-5.3716,0.272,0.4202,116.5266,-3.8515,44.5,98866.0,,,,,,,
1.45,,,,,,,,,138.414,7.355,-0.044,6.762,-0.396,88.0,95.309
1.455,-0.0796,-5.4087,0.2607,2.0308,117.8571,-3.5014,44.5,98839.0,,,,,,,
1.46,,,,,,,,,139.354,7.285,-0.042,6.837,-0.399,90.04,95.167
1.465,-0.0967,-5.4507,0.2612,3.7115,119.6779,-3.2213,44.5,98832.0,,,,,,,
1.47,,,,,,,,,140.294,7.214,-0.038,6.913,-0.403,90.04,95.158
1.475,-0.1069,-5.4292,0.2661,3.7815,121.2885,-2.8011,44.5,98779.0,,,,,,,
1.48,,,,,,,,,141.234,7.14,-0.033,6.988,-0.408,91.57,95.158
1.485,-0.1021,-5.3828,0.2295,4.972,123.9496,-2.3109,44.5,98777.0,,,,,,,
1.49,,,,,,,,,142.173,7.065,-0.028,7.064,-0.412,92.84,95.158
1.495,-0.1294,-5.3428,0.2534,3.5714,124.5098,-1.7507,44.5,98810.0,,,,,,,
1.5,,,,,,,,,143.11,6.988,-0.021,7.14,-0.417,94.12,94.978
1.505,-0.147,-5.3062,0.21,7.7031,125.0,-0.9804,44.5,98736.0,,,,,,,
1.51,,,,,,,,,144.047,6.909,-0.015,7.216,-0.421,96.41,94.865
1.515,-0.1377,-5.2871,0.1885,5.9524,128.9216,0.0,44.5,98725.0,,,,,,,
1.52,,,,,,,,,144.98,6.829,-0.006,7.291,-0.427,97.0,94.619
1.525,-0.1416,-5.2793,0.1611,7.9132,129.8319,1.0504,44.5,98722.0,,,,,,,
1.53,,,,,,,,,145.913,6.746,0.001,7.368,-0.431,98.87,94.477
1.535,-0.1143,-5.3091,0.1846,8.7535,129.8319,2.1008,44.5,98705.0,,,,,,,
1.54,,,,,,,,,146.843,6.662,0.012,7.444,-0.435,101.5,94.259
1.545,-0.1035,-5.2881,0.1689,8.6134,129.7619,3.2213,44.5,98695.0,,,,,,,
1.55,,,,,,,,,147.767,6.576,0.024,7.519,-0.44,101.67,93.701
1.555,-0.0845,-5.2964,0.125,8.3333,129.7619,4.2717,44.5,98675.0,,,,,,,
1.56,,,,,,,,,148.687,6.49,0.036,7.594,-0.443,105.16,93.048
1.565,-0.0879,-5.2681,0.1138,7.1429,128.7115,4.902,44.5,98650.0,,,,,,,
1.57,,,,,,,,,149.604,6.403,0.049,7.667,-0.446,106.09,92.992
1.575,-0.0708,-5.2651,0.1538,4.972,127.3109,5.3922,44.5,98635.0,,,,,,,
1.58,,,,,,,,,150.519,6.316,0.062,7.739,-0.448,106.35,92.802
1.585,-0.0269,-5.2725,0.1514,6.0924,125.9804,6.0924,44.5,98598.0,,,,,,,
1.59,,,,,,,,,151.432,6.229,0.073,7.809,-0.448,107.79,92.642
1.595,-0.0298,-5.2739,0.1143,4.7619,126.4706,5.9524,44.5,98611.0,,,,,,,
1.6,,,,,,,,,152.344,6.143,0.086,7.877,-0.448,108.64,92.623
1.605,-0.0591,-5.2896,0.1353,3.9216,123.7395,5.8824,44.5,98590.0,,,,,,,
1.61,,,,,,,,,153.255,6.055,0.098,7.944,-0.447,110.34,92.471
1.615,-0.0015,-5.2686,0.1006,3.0812,122.549,5.7423,44.5,98546.0,,,,,,,
1.62,,,,,,,,,154.166,5.968,0.109,8.01,-0.446,112.47,92.471
1.625,-0.0166,-5.2402,0.0938,2.8011,120.7983,5.6723,44.5,98537.0,,,,,,,
1.63,,,,,,,,,155.075,5.882,0.12,8.073,-0.444,113.75,92.367
1.635,-0.0234,-5.2061,0.0981,0.6303,117.3669,4.972,44.5,98540.0,,,,,,,
1.64,,,,,,,,,155.985,5.796,0.13,8.135,-0.442,115.79,92.339
1.645,-0.043,-5.2183,0.0864,-0.9104,115.8964,4.3417,44.5,98523.0,,,,,,,
1.65,,,,,,,,,156.893,5.712,0.139,8.195,-0.439,116.9,92.263
1.655,-0.0352,-5.2119,0.1025,-2.8011,115.4762,3.9216,44.5,98501.0,,,,,,,
1.66,,,,,,,,,157.8,5.628,0.146,8.252,-0.435,117.58,92.254
1.665,-0.04,-5.1968,0.1025,-6.2325,115.5462,3.5014,44.5,98511.0,,,,,,,
1.67,,,,,,,,,158.708,5.544,0.152,8.309,-0.43,121.32,92.197
1.675,0.02,-5.1758,0.1147,-5.7423,114.916,3.3613,44.5,98448.0,,,,,,,
1.68,,,,,,,,,159.611,5.459,0.157,8.365,-0.422,121.83,91.715
1.685,0.0215,-5.1289,0.1528,-4.7619,114.1457,2.591,44.5,98441.0,,,,,,,
1.69,,,,,,,,,160.507,5.375,0.161,8.42,-0.415,122.09,91.289
1.695,0.0298,-5.1309,0.2129,-6.5826,114.986,1.4006,44.5,98444.0,,,,,,,
1.7,,,,,,,,,161.402,5.29,0.165,8.474,-0.409,123.28,91.166
1.705,0.0571,-5.1006,0.1914,-7.2829,115.4062,0.4202,44.5,98403.0,,,,,,,
1.71,,,,,,,,,162.295,5.204,0.167,8.527,-0.402,124.3,91.052
1.715,0.0547,-5.0923,0.1519,-4.6919,113.3754,-0.9104,44.5,98386.0,,,,,,,
1.72,,,,,,,,,163.185,5.117,0.169,8.58,-0.395,125.15,90.873
1.725,0.0503,-5.0933,0.1934,-5.8824,114.1457,-2.7311,44.4,98378.0,,,,,,,
1.73,,,,,,,,,164.074,5.031,0.17,8.631,-0.39,129.67,90.466
1.735,0.0229,-5.0928,0.2119,-7.9132,115.4762,-4.2017,44.5,98366.0,,,,,,,
1.74,,,,,,,,,164.953,4.944,0.17,8.681,-0.385,130.01,89.595
1.745,0.0107,-5.0845,0.1719,-9.1737,115.8263,-5.1821,44.5,98385.0,,,,,,,
1.75,,,,,,,,,165.829,4.856,0.167,8.731,-0.38,130.26,89.558
1.755,0.0293,-5.0669,0.1719,-8.0532,114.916,-6.3725,44.5,98351.0,,,,,,,
1.76,,,,,,,,,166.702,4.767,0.164,8.781,-0.373,133.5,89.009
1.765,-0.0229,-5.0801,0.2178,-3.2213,113.4454,-7.0728,44.5,98342.0,,,,,,,
1.77,,,,,,,,,167.573,4.677,0.159,8.829,-0.368,134.95,88.867
1.775,0.0312,-5.0854,0.1938,-4.4818,113.4454,-8.0532,44.5,98341.0,,,,,,,
1.78,,,,,,,,,168.442,4.589,0.156,8.875,-0.367,135.04,88.858
1.785,0.0015,-5.0918,0.2085,-2.451,113.2353,-8.8235,44.5,98298.0,,,,,,,
1.79,,,,,,,,,169.309,4.5,0.152,8.921,-0.366,135.63,88.848
1.795,-0.0029,-5.062,0.2246,-3.7115,113.0952,-9.4538,44.4,98251.0,,,,,,,
1.8,,,,,,,,,170.175,4.41,0.148,8.965,-0.366,136.66,88.839
1.805,0.0142,-5.0317,0.2119,-4.6919,115.1261,-10.2941,44.5,98293.0,,,,,,,
1.81,,,,,,,,,171.039,4.321,0.143,9.009,-0.366,137.94,88.716
1.815,-0.062,-5.0161,0.1831,-5.2521,116.4566,-10.8543,44.5,98235.0,,,,,,,
1.82,,,,,,,,,171.902,4.229,0.138,9.053,-0.365,138.7,88.697
1.825,-0.0474,-4.9897,0.1729,-1.1905,121.4986,-11.4146,44.4,98239.0,,,,,,,
1.83,,,,,,,,,172.762,4.135,0.131,9.096,-0.363,138.79,88.612
1.835,-0.0435,-4.9531,0.1851,-3.4314,123.8095,-11.4846,44.5,98207.0,,,,,,,
1.84,,,,,,,,,173.621,4.038,0.126,9.14,-0.365,142.45,88.356
1.845,-0.1123,-4.9648,0.1626,-3.9216,127.591,-11.7647,44.5,98207.0,,,,,,,
1.85,,,,,,,,,174.478,3.937,0.119,9.183,-0.365,142.88,88.262
1.855,-0.0923,-4.9419,0.1777,-0.7003,130.8123,-11.5546,44.5,98199.0,,,,,,,
1.86,,,,,,,,,175.33,3.834,0.113,9.227,-0.365,146.47,87.675
1.865,-0.1367,-4.9434,0.188,-0.9104,133.4034,-10.9944,44.5,98166.0,,,,,,,
1.87,,,,,,,,,176.179,3.727,0.108,9.271,-0.367,147.49,87.372
1.875,-0.1353,-4.9443,0.1475,0.1401,137.395,-10.5042,44.5,98151.0,,,,,,,
1.88,,,,,,,,,177.02,3.618,0.103,9.314,-0.369,147.83,86.862
1.885,-0.1553,-4.9355,0.1636,0.1401,141.2465,-9.8039,44.5,98163.0,,,,,,,
1.89,,,,,,,,,177.857,3.505,0.099,9.357,-0.372,150.22,86.379
1.895,-0.1606,-4.9072,0.189,-1.4006,144.3978,-8.8235,44.4,98087.0,,,,,,,
1.9,,,,,,,,,178.69,3.388,0.096,9.4,-0.374,150.22,86.152
1.905,-0.1519,-4.8877,0.1787,-3.9916,150.5602,-7.8431,44.4,98091.0,,,,,,,
1.91,,,,,,,,,179.519,3.268,0.094,9.442,-0.374,150.9,85.982
1.915,-0.1797,-4.8633,0.1597,-5.3221,157.2129,-7.0028,44.4,98080.0,,,,,,,
1.92,,,,,,,,,180.349,3.143,0.091,9.485,-0.372,153.72,85.963
1.925,-0.1929,-4.8506,0.1562,-1.4706,161.3445,-6.1625,44.5,98070.0,,,,,,,
1.93,,,,,,,,,181.176,3.011,0.089,9.528,-0.369,153.98,85.934
1.935,-0.1641,-4.8271,0.1753,-4.3417,171.6387,-5.3221,44.5,98039.0,,,,,,,
1.94,,,,,,,,,182.001,2.876,0.089,9.569,-0.368,155.0,85.811
1.945,-0.1875,-4.8315,0.1748,-0.4202,178.6415,-4.6919,44.5,98029.0,,,,,,,
1.95,,,,,,,,,182.825,2.731,0.089,9.612,-0.365,160.13,85.263
1.955,-0.2114,-4.8315,0.1714,-1.7507,184.0336,-3.7115,44.5,97995.0,,,,,,,
1.96,,,,,,,,,183.642,2.58,0.091,9.653,-0.364,160.47,84.884
1.965,-0.1797,-4.8364,0.1445,-0.5602,190.6162,-2.8011,44.4,97994.0,,,,,,,
1.97,,,,,,,,,184.453,2.424,0.094,9.694,-0.362,161.07,84.411
1.975,-0.1929,-4.8286,0.1099,-2.7311,195.2381,-1.7507,44.5,97947.0,,,,,,,
1.98,,,,,,,,,185.26,2.261,0.097,9.733,-0.361,161.92,84.165
1.985,-0.187,-4.7842,0.146,-3.3613,200.9804,0.2101,44.4,97948.0,,,,,,,
1.99,,,,,,,,,186.065,2.094,0.102,9.771,-0.358,164.57,83.891
1.995,-0.1895,-4.7622,0.1426,-2.9412,204.4118,0.6303,44.5,97962.0,,,,,,,
2.0,,,,,,,,,186.867,1.922,0.108,9.806,-0.353,165.43,83.797
2.005,-0.1792,-4.7476,0.1191,-9.4538,210.6443,1.4706,44.5,97926.0,,,,,,,
2.01,,,,,,,,,187.671,1.746,0.114,9.839,-0.349,168.34,83.797
2.015,-0.1646,-4.7329,0.1304,-10.014,213.5854,2.1709,44.4,97883.0,,,,,,,
2.02,,,,,,,,,188.471,1.564,0.121,9.87,-0.339,168.42,83.74
2.025,-0.1646,-4.7373,0.1816,-9.944,218.4874,2.451,44.5,97851.0,,,,,,,
2.03,,,,,,,,,189.272,1.379,0.128,9.898,-0.328,171.16,83.711
2.035,-0.1484,-4.7119,0.1558,-10.3641,220.028,2.8011,44.4,97874.0,,,,,,,
2.04,,,,,,,,,190.063,1.19,0.135,9.922,-0.317,172.35,82.879
2.045,-0.1387,-4.7236,0.188,-10.7843,222.2689,2.7311,44.5,97853.0,,,,,,,
2.05,,,,,,,,,190.847,0.998,0.143,9.944,-0.305,172.44,82.453
2.055,-0.1553,-4.7095,0.1938,-11.7647,224.4398,2.591,44.5,97841.0,,,,,,,
2.06,,,,,,,,,191.628,0.805,0.15,9.962,-0.293,174.24,82.169
2.065,-0.1543,-4.688,0.1748,-12.8852,230.9524,2.381,44.5,97839.0,,,,,,,
2.07,,,,,,,,,192.409,0.609,0.157,9.976,-0.28,177.92,81.971
2.075,-0.1494,-4.6538,0.1973,-13.0952,236.0644,2.381,44.4,97832.0,,,,,,,
2.08,,,,,,,,,193.187,0.407,0.165,9.986,-0.266,178.69,81.886
2.085,-0.1406,-4.6138,0.1929,-13.2353,239.6359,2.521,44.5,97827.0,,,,,,,
2.09,,,,,,,,,193.963,0.201,0.172,9.993,-0.251,180.49,81.706
2.095,-0.123,-4.605,0.2148,-16.8067,245.3081,2.1008,44.4,97808.0,,,,,,,
2.1,,,,,,,,,194.734,-0.008,0.179,9.995,-0.236,180.66,81.479
2.105,-0.1367,-4.6108,0.2754,-14.3557,245.3081,1.7507,44.5,97777.0,,,,,,,
2.11,,,,,,,,,195.502,-0.222,0.186,9.993,-0.218,181.51,81.432
2.115,-0.1152,-4.6235,0.2446,-11.6947,246.5686,1.5406,44.4,97787.0,,,,,,,
2.12,,,,,,,,,196.263,-0.437,0.193,9.986,-0.202,181.68,81.015
2.125,-0.1147,-4.5947,0.2251,-12.535,249.5098,1.0504,44.4,97740.0,,,,,,,
2.13,,,,,,,,,197.015,-0.652,0.199,9.974,-0.188,182.28,80.353
2.135,-0.1064,-4.5864,0.2744,-14.986,252.8011,0.7003,44.5,97753.0,,,,,,,
2.14,,,,,,,,,197.759,-0.87,0.205,9.958,-0.173,182.71,79.767
2.145,-0.0923,-4.5703,0.2656,-10.5742,254.3417,0.0,44.5,97723.0,,,,,,,
2.15,,,,,,,,,198.499,-1.09,0.21,9.936,-0.155,184.34,79.577
2.155,-0.0923,-4.5796,0.2339,-13.2353,256.7927,-0.7003,44.5,97719.0,,,,,,,
2.16,,,,,,,,,199.239,-1.311,0.215,9.91,-0.142,186.14,79.521
2.165,-0.0869,-4.5679,0.2266,-16.0364,257.2129,-1.2605,44.5,97717.0,,,,,,,
2.17,,,,,,,,,199.975,-1.533,0.219,9.878,-0.126,187.0,79.407
2.175,-0.0718,-4.5352,0.2671,-14.0056,256.0924,-1.5406,44.5,97693.0,,,,,,,
2.18,,,,,,,,,200.709,-1.755,0.223,9.841,-0.107,189.05,79.208
2.185,-0.0562,-4.5059,0.2881,-7.7031,256.7927,-2.3109,44.4,97692.0,,,,,,,
2.19,,,,,,,,,201.439,-1.975,0.226,9.799,-0.09,190.17,79.048
2.195,-0.0981,-4.5347,0.3159,-13.3053,258.4734,-3.0112,44.5,97681.0,,,,,,,
2.2,,,,,,,,,202.167,-2.194,0.227,9.753,-0.079,191.62,78.915
2.205,-0.0981,-4.5034,0.3892,-7.0728,259.2437,-3.8515,44.5,97599.0,,,,,,,
2.21,,,,,,,,,202.89,-2.414,0.229,9.701,-0.062,191.97,78.735
2.215,-0.1709,-4.502,0.3784,-11.8347,266.3165,-4.3417,44.5,97650.0,,,,,,,
2.22,,,,,,,,,203.609,-2.634,0.229,9.643,-0.05,192.14,78.688
2.225,-0.1851,-4.4683,0.3843,-8.0532,266.9468,-4.2717,44.4,97654.0,,,,,,,
2.23,,,,,,,,,204.321,-2.858,0.229,9.579,-0.034,194.19,78.054
2.235,-0.2144,-4.4546,0.3906,-8.6835,272.0588,-3.9916,44.5,97590.0,,,,,,,
2.24,,,,,,,,,205.03,-3.081,0.228,9.51,-0.021,194.28,78.045
2.245,-0.291,-4.4399,0.355,-3.8515,271.4986,-2.7311,44.4,97533.0,,,,,,,
2.25,,,,,,,,,205.73,-3.306,0.227,9.434,-0.008,195.22,77.487
2.255,-0.2939,-4.4473,0.2944,1.7507,271.4286,-0.9804,44.4,97511.0,,,,,,,
2.26,,,,,,,,,206.431,-3.53,0.226,9.353,0.0,197.54,77.439
2.265,-0.2461,-4.4126,0.3169,1.7507,276.4706,0.3501,44.4,97517.0,,,,,,,
2.27,,,,,,,,,207.127,-3.751,0.225,9.266,0.004,197.88,77.411
2.275,-0.23,-4.4263,0.2856,0.9104,275.9804,2.451,44.4,97471.0,,,,,,,
2.28,,,,,,,,,207.821,-3.974,0.224,9.173,0.008,202.26,76.758
2.285,-0.1724,-4.4067,0.2725,0.7003,274.3697,4.0616,44.5,97486.0,,,,,,,
2.29,,,,,,,,,208.51,-4.195,0.226,9.074,0.011,203.03,76.493
2.295,-0.188,-4.375,0.2534,-4.5518,274.4398,5.6723,44.4,97459.0,,,,,,,
2.3,,,,,,,,,209.201,-4.411,0.228,8.971,0.014,207.92,76.352
2.305,-0.1304,-4.3374,0.271,-2.451,273.5994,6.0924,44.5,97439.0,,,,,,,
2.31,,,,,,,,,209.89,-4.626,0.234,8.862,0.021,209.29,76.21
2.315,-0.1206,-4.334,0.2129,-7.7031,275.3501,6.5826,44.5,97421.0,,,,,,,
2.32,,,,,,,,,210.573,-4.836,0.239,8.749,0.025,209.81,75.945
2.325,-0.1162,-4.3237,0.2534,-2.0308,269.2577,6.4426,44.4,97370.0,,,,,,,
2.33,,,,,,,,,211.253,-5.046,0.247,8.629,0.034,211.96,75.68
2.335,-0.083,-4.2891,0.2046,-2.9412,271.4286,6.2325,44.4,97334.0,,,,,,,
2.34,,,,,,,,,211.93,-5.248,0.251,8.508,0.038,213.24,75.566
2.345,-0.0034,-4.3076,0.2285,-2.521,269.8179,5.8123,44.4,97341.0,,,,,,,
2.35,,,,,,,,,212.598,-5.448,0.256,8.38,0.043,214.28,74.951
2.355,-0.0376,-4.3145,0.2266,-5.8123,270.7283,4.2017,44.4,97325.0,,,,,,,
2.36,,,,,,,,,213.258,-5.645,0.261,8.249,0.048,215.99,74.223
2.365,-0.0532,-4.3149,0.2002,-5.8824,271.8487,2.8711,44.4,97278.0,,,,,,,
2.37,,,,,,,,,213.916,-5.839,0.265,8.113,0.056,217.54,74.157
2.375,0.002,-4.2983,0.2236,-8.5434,279.0616,1.6807,44.4,97298.0,,,,,,,
2.38,,,,,,,,,214.576,-6.03,0.269,7.972,0.065,221.92,73.958
2.385,0.0269,-4.2964,0.2422,-11.4146,276.4006,0.3501,44.4,97256.0,,,,,,,
2.39,,,,,,,,,215.235,-6.223,0.273,7.822,0.076,224.42,73.788
2.395,0.0488,-4.2495,0.2646,-8.0532,274.7899,-1.7507,44.4,97264.0,,,,,,,
2.4,,,,,,,,,215.89,-6.41,0.277,7.669,0.09,225.02,73.778
2.405,-0.0112,-4.2227,0.2476,-11.6947,274.4398,-3.2913,44.4,97249.0,,,,,,,
2.41,,,,,,,,,216.541,-6.592,0.278,7.512,0.102,225.79,73.646
2.415,-0.022,-4.2222,0.2793,-9.8039,274.1597,-4.902,44.4,97180.0,,,,,,,
2.42,,,,,,,,,217.19,-6.771,0.28,7.352,0.118,228.12,73.466
2.425,-0.0557,-4.2046,0.2954,-16.1765,279.6919,-6.3025,44.4,97194.0,,,,,,,
2.43,,,,,,,,,217.838,-6.945,0.279,7.187,0.134,229.84,73.428
2.435,-0.0698,-4.1904,0.2812,-9.1036,277.451,-7.493,44.4,97141.0,,,,,,,
2.44,,,,,,,,,218.483,-7.118,0.282,7.015,0.154,231.04,73.428
2.445,-0.0815,-4.1733,0.3047,-5.9524,282.423,-8.8235,44.4,97148.0,,,,,,,
2.45,,,,,,,,,219.116,-7.286,0.279,6.84,0.171,231.73,72.52
2.455,-0.1138,-4.1631,0.311,-8.4034,282.7031,-9.0336,44.4,97123.0,,,,,,,
2.46,,,,,,,,,219.74,-7.453,0.273,6.658,0.187,232.33,72.0
2.465,-0.1445,-4.1357,0.2544,4.2017,281.1625,-9.1036,44.4,97065.0,,,,,,,
2.47,,,,,,,,,220.37,-7.615,0.268,6.472,0.204,237.07,71.99
2.475,-0.126,-4.1323,0.271,-3.7815,287.3249,-9.0336,44.4,97057.0,,,,,,,
2.48,,,,,,,,,220.993,-7.772,0.255,6.283,0.214,238.27,71.65
2.485,-0.1953,-4.1274,0.3213,-0.3501,288.5854,-8.6835,44.4,97057.0,,,,,,,
2.49,,,,,,,,,221.614,-7.927,0.247,6.085,0.228,241.02,71.376
2.495,-0.2183,-4.1216,0.2793,-9.1737,294.958,-7.9832,44.4,97017.0,,,,,,,
2.5,,,,,,,,,222.229,-8.078,0.236,5.883,0.24,241.63,71.044
2.505,-0.2036,-4.1362,0.2437,-3.4314,296.5686,-7.0728,44.4,97004.0,,,,,,,
2.51,,,,,,,,,222.84,-8.227,0.232,5.673,0.256,243.18,70.846
2.515,-0.2344,-4.1084,0.2441,-5.4622,300.5602,-5.7423,44.4,96965.0,,,,,,,
2.52,,,,,,,,,223.451,-8.371,0.224,5.457,0.269,248.18,70.326
2.525,-0.2334,-4.1045,0.2725,1.3305,297.2689,-4.4818,44.4,96945.0,,,,,,,
2.53,,,,,,,,,224.059,-8.512,0.218,5.235,0.281,248.87,70.316
2.535,-0.2212,-4.0845,0.2192,-2.8011,297.7591,-3.1513,44.4,96914.0,,,,,,,
2.54,,,,,,,,,224.661,-8.645,0.207,5.012,0.289,248.87,70.25
2.545,-0.2349,-4.0762,0.2266,-12.535,303.0112,-1.8908,44.4,96881.0,,,,,,,
2.55,,,,,,,,,225.264,-8.773,0.2,4.785,0.298,252.31,70.155
2.555,-0.2002,-4.04,0.2915,-16.1765,304.972,-0.2101,44.4,96877.0,,,,,,,
2.56,,,,,,,,,225.864,-8.896,0.201,4.551,0.309,253.43,70.042
2.565,-0.1504,-4.0063,0.2451,-11.9048,307.2129,0.3501,44.4,96872.0,,,,,,,
2.57,,,,,,,,,226.463,-9.014,0.205,4.311,0.321,256.8,69.786
2.575,-0.2305,-4.0049,0.2095,-2.521,304.902,1.1204,44.4,96837.0,,,,,,,
2.58,,,,,,,,,227.06,-9.127,0.205,4.067,0.33,258.52,69.711
2.585,-0.1841,-3.9834,0.2651,-2.1008,304.972,1.5406,44.4,96844.0,,,,,,,
2.59,,,,,,,,,227.654,-9.232,0.199,3.822,0.336,261.2,69.323
2.595,-0.1929,-3.9595,0.2778,-2.3109,304.8319,1.9608,44.4,96793.0,,,,,,,
2.6,,,,,,,,,228.248,-9.331,0.191,3.574,0.34,264.05,69.162
2.605,-0.1895,-3.9663,0.2217,-4.4818,304.8319,2.2409,44.4,96733.0,,,,,,,
2.61,,,,,,,,,228.829,-9.423,0.185,3.324,0.344,264.39,68.462
2.615,-0.1558,-3.9395,0.1582,-9.7339,312.395,2.521,44.4,96758.0,,,,,,,
2.62,,,,,,,,,229.401,-9.508,0.179,3.071,0.348,264.82,67.809
2.625,-0.1387,-3.9043,0.2681,-18.9076,322.1289,2.8011,44.4,96723.0,,,,,,,
2.63,,,,,,,,,229.972,-9.588,0.178,2.81,0.353,267.24,67.781
2.635,-0.1318,-3.8931,0.3174,-17.2269,323.8796,2.591,44.4,96669.0,,,,,,,
2.64,,,,,,,,,230.534,-9.664,0.184,2.538,0.36,267.84,67.365
2.645,-0.0928,-3.8862,0.2886,-9.5938,314.986,3.9216,44.4,96685.0,,,,,,,
2.65,,,,,,,,,231.097,-9.731,0.189,2.262,0.367,271.64,67.033
2.655,-0.0796,-3.8735,0.3013,-11.2045,310.5742,4.3417,44.4,96655.0,,,,,,,
2.66,,,,,,,,,231.66,-9.79,0.187,1.993,0.37,274.67,66.901
2.665,-0.0679,-3.8994,0.3325,-13.6555,306.3725,4.3417,44.4,96654.0,,,,,,,
2.67,,,,,,,,,232.218,-9.84,0.187,1.726,0.373,276.83,66.513
2.675,-0.0669,-3.8467,0.2793,-19.7479,309.1737,4.3417,44.4,96625.0,,,,,,,
2.68,,,,,,,,,232.766,-9.883,0.189,1.461,0.376,277.69,65.832
2.685,-0.0757,-3.8276,0.3999,-7.0728,296.0084,3.8515,44.4,96601.0,,,,,,,
2.69,,,,,,,,,233.316,-9.919,0.196,1.192,0.38,280.98,65.737
2.695,-0.0669,-3.8379,0.3584,-20.3782,301.4006,3.7115,44.4,96560.0,,,,,,,
2.7,,,,,,,,,233.861,-9.946,0.192,0.935,0.382,282.36,65.614
2.705,-0.0151,-3.792,0.3311,-7.563,292.577,3.5714,44.4,96562.0,,,,,,,
2.71,,,,,,,,,234.403,-9.967,0.2,0.671,0.385,283.57,65.482
2.715,-0.0112,-3.7681,0.3965,-4.4118,285.014,3.4314,44.4,96580.0,,,,,,,
2.72,,,,,,,,,234.937,-9.981,0.196,0.415,0.388,283.66,65.236
2.725,-0.0361,-3.7251,0.436,-6.9328,287.0448,2.7311,44.4,96542.0,,,,,,,
2.73,,,,,,,,,235.466,-9.989,0.19,0.166,0.389,286.16,64.716
2.735,-0.0796,-3.7134,0.4087,-1.4706,277.3109,2.8711,44.4,96496.0,,,,,,,
2.74,,,,,,,,,235.993,-9.99,0.186,-0.084,0.392,288.24,64.545
2.745,0.0146,-3.7266,0.3857,1.0504,267.0868,2.9412,44.4,96478.0,,,,,,,
2.75,,,,,,,,,236.516,-9.985,0.178,-0.327,0.394,290.06,64.347
2.755,-0.0693,-3.7241,0.4717,-11.4846,271.4286,2.3109,44.4,96466.0,,,,,,,
2.76,,,,,,,,,237.03,-9.975,0.167,-0.56,0.395,291.62,63.656
2.765,-0.0269,-3.708,0.4707,-11.4846,273.5994,1.8207,44.4,96453.0,,,,,,,
2.77,,,,,,,,,237.534,-9.958,0.167,-0.798,0.396,291.79,63.193
2.775,-0.0107,-3.7314,0.4146,2.451,271.0084,0.8403,44.4,96434.0,,,,,,,
2.78,,,,,,,,,238.029,-9.936,0.167,-1.036,0.398,293.35,62.389
2.785,-0.0596,-3.7095,0.355,4.7619,263.3754,1.0504,44.4,96372.0,,,,,,,
2.79,,,,,,,,,238.527,-9.909,0.155,-1.272,0.401,297.33,62.389
2.795,-0.002,-3.7021,0.479,0.7703,267.0168,1.0504,44.4,96349.0,,,,,,,
2.8,,,,,,,,,239.023,-9.877,0.141,-1.5,0.404,298.89,62.36
2.805,-0.0571,-3.6909,0.3979,-2.0308,265.056,0.8403,44.4,96313.0,,,,,,,
2.81,,,,,,,,,239.515,-9.839,0.131,-1.73,0.406,299.93,62.341
2.815,-0.0664,-3.6904,0.3071,-0.6303,270.098,0.7003,44.4,96291.0,,,,,,,
2.82,,,,,,,,,240.002,-9.797,0.122,-1.958,0.408,301.05,62.133
2.825,-0.0547,-3.6807,0.3457,-0.7703,275.7003,0.6303,44.4,96287.0,,,,,,,
2.83,,,,,,,,,240.487,-9.748,0.113,-2.189,0.41,302.7,62.057
2.835,-0.0659,-3.6504,0.4507,3.2913,273.0392,0.7003,44.4,96280.0,,,,,,,
2.84,,,,,,,,,240.978,-9.692,0.103,-2.424,0.412,308.07,62.029
2.845,-0.0508,-3.6675,0.3457,9.944,269.6779,0.7703,44.4,96217.0,,,,,,,
2.85,,,,,,,,,241.467,-9.631,0.09,-2.655,0.415,310.07,61.916
2.855,-0.0088,-3.6406,0.2261,3.2213,272.6891,0.8403,44.4,96188.0,,,,,,,
2.86,,,,,,,,,241.956,-9.566,0.071,-2.881,0.418,313.19,61.698
2.865,-0.0459,-3.6519,0.3433,6.7927,273.1092,1.1905,44.4,96163.0,,,,,,,
2.87,,,,,,,,,242.444,-9.494,0.058,-3.108,0.42,315.1,61.689
2.875,-0.0513,-3.6816,0.3311,-2.2409,272.619,1.4706,44.4,96129.0,,,,,,,
2.88,,,,,,,,,242.925,-9.418,0.042,-3.334,0.422,315.44,61.499
2.885,0.0044,-3.6792,0.2549,10.7143,265.6863,1.0504,44.4,96104.0,,,,,,,
2.89,,,,,,,,,243.401,-9.335,0.033,-3.558,0.421,316.05,61.499
2.895,-0.0791,-3.6411,0.2769,-3.8515,283.2633,0.4902,44.4,96070.0,,,,,,,
2.9,,,,,,,,,243.884,-9.25,0.013,-3.774,0.424,321.52,61.471
2.905,-0.0737,-3.6187,0.3228,3.6415,282.2129,0.0,44.4,96045.0,,,,,,,
2.91,,,,,,,,,244.366,-9.154,0.005,-4.002,0.423,324.03,61.244
2.915,-0.0044,-3.5513,0.2964,-8.1933,287.1148,-0.2101,44.4,96003.0,,,,,,,
2.92,,,,,,,,,244.843,-9.052,-0.007,-4.227,0.424,326.21,60.941
2.925,-0.0825,-3.5312,0.2046,-10.2941,284.8739,-1.4006,44.4,95969.0,,,,,,,
2.93,,,,,,,,,245.322,-8.943,-0.012,-4.454,0.421,329.16,60.913
2.935,-0.0332,-3.5093,0.2227,-15.8964,295.9384,-4.2017,44.4,95944.0,,,,,,,
2.94,,,,,,,,,245.799,-8.829,-0.014,-4.675,0.418,331.33,60.733
2.945,-0.1353,-3.5142,0.3442,-15.3361,303.0812,-5.9524,44.4,95956.0,,,,,,,
2.95,,,,,,,,,246.277,-8.705,-0.011,-4.903,0.414,334.28,60.724
2.955,-0.1387,-3.5439,0.3218,-8.7535,316.2465,-8.8936,44.4,95902.0,,,,,,,
2.96,,,,,,,,,246.75,-8.571,-0.008,-5.133,0.412,336.46,60.298
2.965,-0.186,-3.5312,0.312,-6.4426,327.7311,-10.8543,44.4,95854.0,,,,,,,
2.97,,,,,,,,,247.213,-8.426,-0.01,-5.368,0.414,340.11,58.992
2.975,-0.2456,-3.5142,0.3726,-12.465,339.5658,-10.9944,44.4,95813.0,,,,,,,
2.98,,,,,,,,,247.676,-8.268,-0.012,-5.608,0.419,343.06,58.851
2.985,-0.2158,-3.4751,0.3413,-16.1765,342.0168,-10.3641,44.4,95788.0,,,,,,,
2.99,,,,,,,,,248.133,-8.097,-0.01,-5.851,0.42,344.2,58.605
2.995,-0.3408,-3.4683,0.3271,-3.0112,318.2773,-9.4538,44.4,95723.0,,,,,,,
3.0,,,,,,,,,248.587,-7.918,-0.007,-6.092,0.419,345.24,58.605
3.005,-0.4009,-3.457,0.375,-12.1148,325.0,-7.2129,44.4,95719.0,,,,,,,
3.01,,,,,,,,,249.04,-7.745,-0.011,-6.31,0.423,348.9,58.273
3.015,-0.272,-3.3901,0.3271,-11.4846,295.6583,-3.2213,44.4,95690.0,,,,,,,
3.02,,,,,,,,,249.498,-7.563,-0.012,-6.528,0.421,353.07,58.273
3.025,-0.4399,-3.3701,0.293,-3.3613,282.7731,-0.4902,44.4,95621.0,,,,,,,
3.03,,,,,,,,,249.958,-7.391,-0.013,-6.722,0.416,356.64,58.179
3.035,-0.439,-3.3564,0.3105,2.381,273.7395,1.4006,44.4,95641.0,,,,,,,
3.04,,,,,,,,,250.411,-7.222,-0.022,-6.903,0.414,358.82,57.517
3.045,-0.2104,-3.3306,0.3638,-8.1933,272.8992,2.451,44.4,95613.0,,,,,,,
3.05,,,,,,,,,250.871,-7.055,-0.034,-7.074,0.414,364.49,57.384
3.055,-0.2666,-3.3184,0.2783,-17.1569,265.7563,2.6611,44.4,95584.0,,,,,,,
3.06,,,,,,,,,251.324,-6.884,-0.041,-7.241,0.407,364.83,57.167
3.065,-0.3804,-3.3291,0.2959,-21.2885,259.3137,3.3613,44.4,95564.0,,,,,,,
3.07,,,,,,,,,251.763,-6.714,-0.042,-7.4,0.394,367.36,55.871
3.075,-0.2959,-3.2954,0.5186,-16.2465,251.3305,3.4314,44.4,95535.0,,,,,,,
3.08,,,,,,,,,252.204,-6.544,-0.041,-7.551,0.377,371.63,55.483
3.085,-0.3027,-3.2778,0.4912,-36.8347,267.0168,2.6611,44.4,95575.0,,,,,,,
3.09,,,,,,,,,252.64,-6.377,-0.043,-7.694,0.364,373.38,55.218
3.095,-0.3262,-3.2793,0.3403,-30.8824,260.7843,1.7507,44.4,95497.0,,,,,,,
3.1,,,,,,,,,253.067,-6.195,-0.033,-7.842,0.337,374.08,54.717
3.105,-0.2856,-3.2925,0.4473,-17.0868,238.0252,0.7703,44.4,95462.0,,,,,,,
3.11,,,,,,,,,253.493,-6.015,-0.025,-7.982,0.314,376.61,54.688
3.115,-0.3047,-3.2349,0.6519,-21.9888,222.7591,1.4706,44.4,95422.0,,,,,,,
3.12,,,,,,,,,253.913,-5.847,-0.024,-8.106,0.301,377.39,54.48
3.125,-0.2402,-3.2227,0.5728,-20.1681,186.5546,0.0,44.4,95447.0,,,,,,,
3.13,,,,,,,,,254.324,-5.688,-0.02,-8.219,0.285,378.35,54.035
3.135,-0.1152,-3.1577,0.7144,-4.8319,136.2745,0.4902,44.4,95433.0,,,,,,,
3.14,,,,,,,,,254.736,-5.552,-0.014,-8.312,0.27,380.88,53.979
3.145,-0.2422,-3.2363,0.6587,-28.6415,68.4874,0.5602,44.4,95487.0,,,,,,,
3.15,,,,,,,,,255.146,-5.452,-0.016,-8.378,0.266,384.2,53.723
3.155,-0.5464,-3.2651,0.8208,-24.5098,64.0756,4.2017,44.4,95438.0,,,,,,,
3.16,,,,,,,,,255.553,-5.402,-0.005,-8.411,0.245,385.07,53.695
3.165,-0.5327,-3.1948,0.8418,-1.4706,76.4006,7.6331,44.4,95438.0,,,,,,,
3.17,,,,,,,,,255.956,-5.354,0.001,-8.442,0.225,387.26,53.449
3.175,-0.3208,-3.1567,0.6196,7.1429,108.2633,8.8235,44.4,95412.0,,,,,,,
3.18,,,,,,,,,256.35,-5.297,-0.005,-8.478,0.221,388.57,52.891
3.185,-0.4102,-3.0869,0.5796,-18.7675,159.5938,10.9244,44.4,95422.0,,,,,,,
3.19,,,,,,,,,256.74,-5.216,-0.017,-8.528,0.222,389.36,52.862
3.195,-0.3677,-3.0479,0.6411,4.8319,196.9888,10.7843,44.4,95362.0,,,,,,,
3.2,,,,,,,,,257.12,-5.096,-0.02,-8.601,0.203,389.36,52.626
3.205,-0.27,-3.0962,0.6885,15.8263,201.8207,14.1457,44.4,95319.0,,,,,,,
3.21,,,,,,,,,257.49,-4.947,-0.034,-8.687,0.202,389.79,52.087
3.215,-0.25,-3.1328,0.7876,26.7507,187.465,16.6667,44.4,95315.0,,,,,,,
3.22,,,,,,,,,257.846,-4.793,-0.055,-8.773,0.208,389.79,51.368
3.225,-0.126,-3.1274,0.6084,20.7283,179.8319,18.9076,44.4,95262.0,,,,,,,
3.23,,,,,,,,,258.197,-4.648,-0.083,-8.85,0.22,390.75,51.349
3.235,-0.0269,-3.1074,0.5122,5.112,168.2773,20.028,44.4,95272.0,,,,,,,
3.24,,,,,,,,,258.539,-4.508,-0.109,-8.922,0.228,391.63,50.885
3.245,-0.0205,-3.1069,0.5684,2.6611,151.0504,21.9888,44.4,95222.0,,,,,,,
3.25,,,,,,,,,258.886,-4.376,-0.131,-8.987,0.222,396.0,50.781
3.255,-0.0078,-3.1216,0.5708,6.0924,140.6863,21.1485,44.4,95209.0,,,,,,,
3.26,,,,,,,,,259.233,-4.257,-0.152,-9.044,0.214,399.76,50.393
3.265,0.0386,-3.105,0.4146,13.8655,125.2101,18.5574,44.4,95212.0,,,,,,,
3.27,,,,,,,,,259.574,-4.145,-0.174,-9.096,0.21,400.11,50.393
3.275,0.1655,-3.0645,0.3892,14.7059,133.9636,14.7059,44.4,95221.0,,,,,,,
3.28,,,,,,,,,259.918,-4.045,-0.196,-9.14,0.212,403.87,50.384
3.285,0.2188,-3.0996,0.3608,2.591,137.2549,12.1148,44.3,95181.0,,,,,,,
3.29,,,,,,,,,260.259,-3.937,-0.216,-9.187,0.217,404.74,50.384
3.295,0.1558,-3.0747,0.3169,4.6218,122.9692,9.5238,44.4,95176.0,,,,,,,
3.3,,,,,,,,,260.602,-3.826,-0.229,-9.233,0.212,408.25,50.384
3.305,0.2505,-3.0845,0.271,10.1541,112.1148,6.5826,44.4,95124.0,,,,,,,
3.31,,,,,,,,,260.939,-3.726,-0.241,-9.274,0.211,408.33,50.384
3.315,0.2637,-3.083,0.2407,-4.6218,102.7311,3.0112,44.4,95141.0,,,,,,,
3.32,,,,,,,,,261.27,-3.634,-0.252,-9.31,0.215,409.12,50.346
3.325,0.2617,-3.0825,0.2646,-18.1373,96.7787,-0.2801,44.4,95073.0,,,,,,,
3.33,,,,,,,,,261.595,-3.549,-0.255,-9.342,0.208,409.38,50.242
3.335,0.2407,-3.0679,0.2441,-11.8347,90.1261,-3.8515,44.4,95044.0,,,,,,,
3.34,,,,,,,,,261.916,-3.47,-0.251,-9.373,0.191,411.83,49.949
3.345,0.2378,-3.0503,0.1865,-4.5518,79.6919,-6.2325,44.4,95012.0,,,,,,,
3.35,,,,,,,,,262.232,-3.396,-0.246,-9.4,0.181,412.27,49.92
3.355,0.1768,-3.0684,0.1406,-3.7815,70.5882,-8.8235,44.4,95016.0,,,,,,,
3.36,,,,,,,,,262.55,-3.329,-0.241,-9.424,0.178,415.34,49.911
3.365,0.085,-3.0337,0.2827,-5.6723,45.4482,-11.7647,44.4,95009.0,,,,,,,
3.37,,,,,,,,,262.863,-3.27,-0.234,-9.445,0.176,416.82,49.76
3.375,0.0381,-3.0293,0.2427,-7.7031,43.8375,-12.465,44.4,94974.0,,,,,,,
3.38,,,,,,,,,263.183,-3.232,-0.224,-9.458,0.174,421.3,49.76
3.385,-0.0381,-3.0161,0.271,-17.0868,35.084,-12.2549,44.4,94952.0,,,,,,,
3.39,,,,,,,,,263.501,-3.195,-0.212,-9.471,0.17,423.84,49.637
3.395,-0.0928,-2.9995,0.3496,-0.07,15.6863,-12.1849,44.4,94951.0,,,,,,,
3.4,,,,,,,,,263.82,-3.165,-0.198,-9.482,0.159,426.29,49.627
3.405,-0.1206,-2.9824,0.3135,-2.3109,21.7787,-11.4846,44.3,94913.0,,,,,,,
3.41,,,,,,,,,264.129,-3.151,-0.188,-9.487,0.163,426.64,49.287
3.415,-0.1641,-2.9419,0.3589,2.451,14.5658,-10.2241,44.4,94877.0,,,,,,,
3.42,,,,,,,,,264.429,-3.132,-0.179,-9.493,0.164,426.91,48.965
3.425,-0.2061,-2.9121,0.3945,-13.7955,11.6246,-9.5938,44.3,94847.0,,,,,,,
3.43,,,,,,,,,264.731,-3.119,-0.171,-9.498,0.169,429.98,48.88
3.435,-0.189,-2.9165,0.4326,-4.1317,8.8235,-8.3333,44.3,94842.0,,,,,,,
3.44,,,,,,,,,265.028,-3.108,-0.16,-9.501,0.16,431.9,48.624
3.445,-0.2139,-2.874,0.3945,-7.493,1.1204,-5.2521,44.4,94793.0,,,,,,,
3.45,,,,,,,,,265.315,-3.1,-0.152,-9.504,0.159,431.99,48.303
3.455,-0.207,-2.8594,0.4004,3.5714,-3.7815,-3.1513,44.4,94772.0,,,,,,,
3.46,,,,,,,,,265.602,-3.098,-0.146,-9.505,0.154,435.33,47.972
3.465,-0.2012,-2.8428,0.4868,-5.8123,-15.5462,0.0,44.4,94701.0,,,,,,,
3.47,,,,,,,,,265.883,-3.1,-0.145,-9.504,0.158,438.49,47.186
3.475,-0.1655,-2.8296,0.5161,6.6527,-32.0028,2.1709,44.4,94749.0,,,,,,,
3.48,,,,,,,,,266.16,-3.113,-0.143,-9.5,0.154,441.12,46.694
3.485,-0.168,-2.8008,0.5039,-4.6218,-31.6527,5.6723,44.4,94713.0,,,,,,,
3.49,,,,,,,,,266.431,-3.138,-0.146,-9.492,0.16,441.56,46.609
3.495,-0.147,-2.8174,0.5117,-12.8852,-31.3025,6.6527,44.3,94691.0,,,,,,,
3.5,,,,,,,,,266.699,-3.164,-0.15,-9.483,0.155,445.86,45.871
3.505,-0.1084,-2.7939,0.5132,11.5546,-36.9048,6.9328,44.4,94629.0,,,,,,,
3.51,,,,,,,,,266.964,-3.189,-0.151,-9.475,0.143,447.71,45.588
3.515,-0.0552,-2.7808,0.5181,21.1485,-47.6891,7.1429,44.4,94677.0,,,,,,,
3.52,,,,,,,,,267.224,-3.218,-0.16,-9.465,0.152,449.73,45.266
3.525,-0.0176,-2.7871,0.5127,9.4538,-42.3669,6.5826,44.4,94640.0,,,,,,,
3.53,,,,,,,,,267.484,-3.257,-0.171,-9.451,0.168,452.9,45.011
3.535,-0.0278,-2.7808,0.4673,-13.0252,-32.3529,5.6022,44.4,94634.0,,,,,,,
3.54,,,,,,,,,267.737,-3.291,-0.179,-9.439,0.175,453.95,44.774
3.545,-0.0068,-2.7705,0.5034,-5.6723,-42.6471,3.3613,44.3,94581.0,,,,,,,
3.55,,,,,,,,,267.983,-3.317,-0.18,-9.43,0.163,454.83,44.452
3.555,-0.021,-2.7661,0.4473,-5.5322,-40.1261,1.8207,44.4,94556.0,,,,,,,
3.56,,,,,,,,,268.224,-3.351,-0.181,-9.418,0.158,456.06,44.32
3.565,-0.0513,-2.7612,0.4111,8.2633,-33.8936,0.2101,44.3,94530.0,,,,,,,
3.57,,,,,,,,,268.467,-3.383,-0.18,-9.407,0.154,459.31,44.188
3.575,-0.0098,-2.7358,0.3721,19.6779,-41.1064,-0.2101,44.3,94545.0,,,,,,,
3.58,,,,,,,,,268.703,-3.41,-0.182,-9.397,0.162,459.84,44.065
3.585,-0.0322,-2.6909,0.4102,11.2045,-31.8627,-1.5406,44.4,94454.0,,,,,,,
3.59,,,,,,,,,268.933,-3.442,-0.188,-9.385,0.179,460.28,44.065
3.595,-0.002,-2.6729,0.373,-12.3249,-17.7171,-1.2605,44.3,94446.0,,,,,,,
3.6,,,,,,,,,269.167,-3.467,-0.19,-9.375,0.189,464.51,43.866
3.605,-0.0801,-2.6377,0.2798,-9.3137,-29.3417,-1.8908,44.3,94402.0,,,,,,,
3.61,,,,,,,,,269.399,-3.481,-0.185,-9.37,0.18,466.71,43.781
3.615,-0.0332,-2.625,0.334,1.8908,-33.5434,-2.9412,44.3,94377.0,,,,,,,
3.62,,,,,,,,,269.626,-3.504,-0.18,-9.362,0.174,467.67,43.686
3.625,-0.1001,-2.5996,0.334,-2.3109,-28.9216,-3.7815,44.4,94330.0,,,,,,,
3.63,,,,,,,,,269.846,-3.531,-0.178,-9.352,0.177,468.99,43.194
3.635,-0.0894,-2.5854,0.2954,21.4986,-36.9048,-4.0616,44.3,94288.0,,,,,,,
3.64,,,,,,,,,270.069,-3.554,-0.174,-9.343,0.177,475.69,42.324
3.645,-0.0601,-2.5493,0.3145,19.6078,-31.7227,-4.6919,44.4,94305.0,,,,,,,
3.65,,,,,,,,,270.285,-3.582,-0.177,-9.332,0.197,476.39,41.974
3.655,-0.1401,-2.5107,0.3643,17.9972,-25.3501,-4.6919,44.3,94269.0,,,,,,,
3.66,,,,,,,,,270.498,-3.607,-0.179,-9.322,0.215,480.27,41.293
3.665,-0.1357,-2.4795,0.3906,14.4258,-33.5434,-4.0616,44.3,94187.0,,,,,,,
3.67,,,,,,,,,270.708,-3.626,-0.181,-9.314,0.232,482.47,41.047
3.675,-0.1558,-2.4443,0.3467,-16.1064,-20.9384,-3.0112,44.4,94193.0,,,,,,,
3.68,,,,,,,,,270.918,-3.652,-0.181,-9.303,0.245,486.62,40.555
3.685,-0.0654,-2.3276,0.4385,-2.521,-31.9328,-2.8011,44.4,94144.0,,,,,,,
3.69,,,,,,,,,271.126,-3.669,-0.174,-9.297,0.234,488.83,40.281
3.695,-0.0903,-2.2178,0.541,-1.3305,-41.5266,-1.4006,44.3,94118.0,,,,,,,
3.7,,,,,,,,,271.324,-3.694,-0.17,-9.288,0.233,490.32,39.581
3.705,-0.0996,-2.0791,0.3911,-18.4174,-37.0448,-0.9804,44.3,94106.0,,,,,,,
3.71,,,,,,,,,271.512,-3.727,-0.168,-9.275,0.234,492.0,38.833
3.715,-0.064,-1.7466,0.5356,18.4874,-38.5854,-2.1709,44.3,94125.0,,,,,,,
3.72,,,,,,,,,271.707,-3.756,-0.161,-9.263,0.22,498.71,38.228
3.725,-0.1035,-1.5674,0.5039,-9.5238,-28.3613,-2.591,44.3,94024.0,,,,,,,
3.73,,,,,,,,,271.89,-3.786,-0.164,-9.25,0.236,499.24,37.547
3.735,-0.1108,-1.3911,0.4062,-0.7703,-36.9048,-2.521,44.3,94007.0,,,,,,,
3.74,,,,,,,,,272.055,-3.808,-0.159,-9.242,0.23,503.04,35.286
3.745,-0.0889,-1.2051,0.439,-4.3417,-31.0924,-0.7003,44.3,94003.0,,,,,,,
3.75,,,,,,,,,272.196,-3.837,-0.156,-9.23,0.231,504.72,33.157
3.755,-0.0903,-1.0059,0.5024,-4.2717,-42.2269,-0.7003,44.3,93936.0,,,,,,,
3.76,,,,,,,,,272.305,-3.861,-0.154,-9.22,0.229,505.33,30.471
3.765,-0.0825,-0.8452,0.376,4.2017,-55.3221,0.2801,44.3,93895.0,,,,,,,
3.77,,,,,,,,,272.346,-3.894,-0.151,-9.206,0.226,506.39,24.028
3.775,-0.0146,-0.6685,0.3179,13.7255,-61.9048,0.4902,44.3,93870.0,,,,,,,
3.78,,,,,,,,,272.367,-3.938,-0.152,-9.187,0.23,513.64,20.557
3.785,-0.0645,-0.5024,0.3555,0.07,-56.3025,1.1905,44.4,93806.0,,,,,,,
3.79,,,,,,,,,272.351,-3.986,-0.156,-9.166,0.242,515.15,17.141
3.795,-0.0493,-0.356,0.3745,-0.07,-47.6891,-0.7003,44.3,93791.0,,,,,,,
3.8,,,,,,,,,272.293,-4.03,-0.156,-9.147,0.243,515.5,13.537
3.805,-0.002,-0.2124,0.3384,-18.7675,-46.0084,-0.5602,44.3,93743.0,,,,,,,
3.81,,,,,,,,,272.207,-4.067,-0.155,-9.13,0.244,521.43,9.678
3.815,-0.1157,-0.0732,0.3188,-0.7003,-63.5854,-0.6303,44.3,93671.0,,,,,,,
3.82,,,,,,,,,272.094,-4.103,-0.147,-9.114,0.23,525.06,6.565
3.825,-0.0181,0.0454,0.2939,7.3529,-54.6218,-0.8403,44.3,93656.0,,,,,,,
3.83,,,,,,,,,271.946,-4.153,-0.145,-9.092,0.231,527.27,3.141
3.835,-0.062,0.1514,0.2998,-18.3473,-33.6134,-1.7507,44.3,93658.0,,,,,,,
3.84,,,,,,,,,271.776,-4.195,-0.146,-9.072,0.238,532.94,-0.076
3.845,-0.0894,0.2305,0.4014,-1.3305,-56.3725,-0.9804,44.3,93598.0,,,,,,,
3.85,,,,,,,,,271.575,-4.221,-0.138,-9.061,0.225,534.27,-2.914
3.855,-0.0938,0.3262,0.3784,-3.0812,-42.7171,-1.1905,44.3,93565.0,,,,,,,
3.86,,,,,,,,,271.351,-4.265,-0.135,-9.04,0.225,538.52,-5.695
3.865,-0.2324,0.4019,0.2812,-20.5182,-43.8375,1.1204,44.3,93467.0,,,,,,,
3.87,,,,,,,,,271.113,-4.298,-0.133,-9.025,0.224,544.91,-8.391
3.875,-0.3047,0.4751,0.356,-17.2969,-39.2157,2.8711,44.3,93487.0,,,,,,,
3.88,,,,,,,,,270.848,-4.332,-0.125,-9.009,0.208,546.06,-10.69
3.885,-0.1763,0.5308,0.4077,-12.3249,-48.8095,5.1821,44.3,93423.0,,,,,,,
3.89,,,,,,,,,270.556,-4.362,-0.121,-8.995,0.194,546.24,-12.743
3.895,-0.1885,0.5723,0.2202,-7.2129,-58.2633,8.2633,44.3,93369.0,,,,,,,
3.9,,,,,,,,,270.257,-4.4,-0.119,-8.977,0.183,551.38,-14.275
3.905,-0.1494,0.6284,0.3223,-23.5994,-43.1373,10.014,44.3,93338.0,,,,,,,
3.91,,,,,,,,,269.941,-4.445,-0.122,-8.955,0.175,554.32,-16.129
3.915,-0.0903,0.6768,0.3965,-17.2269,-50.9804,12.1148,44.3,93311.0,,,,,,,
3.92,,,,,,,,,269.625,-4.478,-0.121,-8.939,0.153,561.24,-17.596
3.925,-0.0146,0.7178,0.4102,4.1317,-58.4034,12.605,44.3,93341.0,,,,,,,
3.93,,,,,,,,,269.292,-4.517,-0.123,-8.919,0.136,563.02,-19.015
3.935,-0.0005,0.7676,0.3823,-11.0644,-48.3193,11.1345,44.3,93280.0,,,,,,,
3.94,,,,,,,,,268.953,-4.562,-0.134,-8.896,0.135,566.93,-20.093
3.945,-0.0029,0.8105,0.4897,-12.1849,-37.8852,10.014,44.3,93286.0,,,,,,,
3.95,,,,,,,,,268.614,-4.599,-0.138,-8.877,0.123,571.73,-20.897
3.955,0.0938,0.8525,0.4775,-23.2493,-20.5182,7.8431,44.3,93283.0,,,,,,,
3.96,,,,,,,,,268.264,-4.627,-0.141,-8.862,0.11,574.22,-21.985
3.965,0.1592,0.9014,0.499,-20.6583,-12.605,5.6022,44.3,93254.0,,,,,,,
3.97,,,,,,,,,267.897,-4.643,-0.137,-8.855,0.089,574.49,-22.922
3.975,0.0752,0.9102,0.4575,6.3025,-25.4202,4.8319,44.3,93234.0,,,,,,,
3.98,,,,,,,,,267.523,-4.652,-0.133,-8.85,0.072,576.89,-23.716
3.985,0.0728,0.9629,0.4268,-3.3613,-15.8263,3.7815,44.3,93193.0,,,,,,,
3.99,,,,,,,,,267.139,-4.671,-0.14,-8.84,0.075,579.12,-24.681
3.995,0.125,0.9688,0.376,9.3838,-18.1373,1.8908,44.3,93182.0,,,,,,,
4.0,,,,,,,,,266.74,-4.682,-0.142,-8.834,0.071,579.38,-25.514
4.005,0.1689,1.0015,0.2993,0.9104,-6.9328,-0.7703,44.3,93080.0,,,,,,,
4.01,,,,,,,,,266.327,-4.695,-0.147,-8.827,0.078,579.65,-26.327
4.015,0.1211,1.019,0.3442,1.1204,-8.2633,-2.0308,44.3,93083.0,,,,,,,
4.02,,,,,,,,,265.903,-4.7,-0.147,-8.824,0.08,581.96,-27.273
4.025,0.02,1.0591,0.3403,4.902,-3.5714,-3.9216,44.3,93051.0,,,,,,,
4.03,,,,,,,,,265.477,-4.705,-0.146,-8.822,0.082,583.75,-27.443
4.035,0.1572,1.0889,0.3267,12.0448,18.3473,-8.2633,44.3,93018.0,,,,,,,
4.04,,,,,,,,,265.044,-4.707,-0.145,-8.82,0.087,587.39,-28.465
4.045,0.0781,1.124,0.3521,8.5434,21.9888,-10.2241,44.3,92962.0,,,,,,,
4.05,,,,,,,,,264.606,-4.692,-0.144,-8.828,0.1,588.37,-28.579
4.055,-0.1528,1.2236,0.2661,-7.1429,84.6639,-15.1961,44.3,92936.0,,,,,,,
4.06,,,,,,,,,264.182,-4.674,-0.14,-8.838,0.111,597.2,-29.212
4.065,-0.062,1.2129,0.4219,14.4258,159.8739,-23.3193,44.3,92955.0,,,,,,,
4.07,,,,,,,,,263.747,-4.608,-0.127,-8.873,0.111,597.46,-29.553
4.075,-0.2842,1.1938,0.3076,8.1232,236.7647,-25.8403,44.3,92842.0,,,,,,,
4.08,,,,,,,,,263.306,-4.482,-0.116,-8.937,0.13,600.05,-30.329
4.085,-0.4419,1.1787,0.1157,23.9496,277.591,-26.2605,44.3,92713.0,,,,,,,
4.09,,,,,,,,,262.861,-4.296,-0.102,-9.028,0.144,602.99,-30.906
4.095,-0.5029,1.1821,0.0776,16.3165,327.8011,-26.8908,44.3,92620.0,,,,,,,
4.1,,,,,,,,,262.418,-4.074,-0.094,-9.13,0.17,607.99,-31.587
4.105,-0.5596,1.1792,0.1113,21.0784,383.1933,-25.7703,44.3,92560.0,,,,,,,
4.11,,,,,,,,,261.959,-3.81,-0.084,-9.243,0.19,608.62,-32.646
4.115,-0.6196,1.1572,0.0015,18.2073,436.9048,-22.8992,44.3,92495.0,,,,,,,
4.12,,,,,,,,,261.497,-3.498,-0.076,-9.365,0.213,610.31,-32.656
4.125,-0.6528,1.1392,-0.1362,16.0364,465.7563,-19.6078,44.3,92424.0,,,,,,,
4.13,,,,,,,,,261.055,-3.137,-0.072,-9.491,0.232,618.71,-32.656
4.135,-0.5796,1.0879,-0.2388,15.2661,488.6555,-15.6863,44.3,92396.0,,,,,,,
4.14,,,,,,,,,260.641,-2.748,-0.069,-9.611,0.248,630.24,-32.656
4.145,-0.6499,1.1021,-0.3203,-0.2801,476.5406,-8.8936,44.3,92322.0,,,,,,,
4.15,,,,,,,,,260.245,-2.335,-0.071,-9.719,0.261,638.56,-32.656
4.155,-0.626,1.0947,-0.4048,-7.493,446.0784,-0.9804,44.3,92292.0,,,,,,,
4.16,,,,,,,,,259.859,-1.928,-0.074,-9.808,0.26,643.93,-32.646
4.165,-0.4219,1.0942,-0.2563,-17.9972,422.1989,4.4818,44.3,92289.0,,,,,,,
4.17,,,,,,,,,259.487,-1.544,-0.082,-9.876,0.251,649.76,-32.23
4.175,-0.3291,1.0981,-0.1274,-16.3165,395.8683,6.9328,44.3,92274.0,,,,,,,
4.18,,,,,,,,,259.131,-1.179,-0.093,-9.927,0.232,656.12,-31.88
4.185,-0.2886,1.1055,-0.0942,-28.0812,375.0,9.0336,44.3,92294.0,,,,,,,
4.19,,,,,,,,,258.783,-0.835,-0.106,-9.962,0.214,658.63,-31.161
4.195,-0.1943,1.1128,-0.0054,-30.9524,352.6611,9.5238,44.3,92375.0,,,,,,,
4.2,,,,,,,,,258.447,-0.508,-0.118,-9.984,0.186,665.27,-31.161
4.205,-0.1484,1.1973,0.209,-43.8375,331.9328,8.7535,44.3,92336.0,,,,,,,
4.21,,,,,,,,,258.103,-0.201,-0.131,-9.995,0.155,665.27,-31.161
4.215,-0.0264,1.1787,0.3315,-39.4258,309.1737,8.0532,44.3,92399.0,,,,,,,
4.22,,,,,,,,,257.751,0.088,-0.143,-9.997,0.113,665.27,-31.161
4.225,-0.0435,1.1509,0.4404,-48.6695,290.4762,7.0028,44.3,92389.0,,,,,,,
4.23,,,,,,,,,257.392,0.358,-0.153,-9.992,0.075,665.27,-31.161
4.235,-0.0786,1.1641,0.7407,-51.8908,276.4006,4.902,44.3,92449.0,,,,,,,
4.24,,,,,,,,,257.024,0.611,-0.163,-9.979,0.029,665.27,-31.227
4.245,-0.0391,1.1694,0.9199,-50.9104,243.1373,4.2717,44.3,92502.0,,,,,,,
4.25,,,,,,,,,256.643,0.852,-0.17,-9.962,-0.018,664.01,-31.369
4.255,0.0386,1.1826,1.0522,-64.7759,223.6695,3.5714,44.3,92515.0,,,,,,,
4.26,,,,,,,,,256.237,1.063,-0.178,-9.941,-0.065,660.52,-32.107
4.265,-0.0103,1.1836,1.0718,-46.9888,183.7535,4.7619,44.3,92490.0,,,,,,,
4.27,,,,,,,,,255.817,1.256,-0.185,-9.918,-0.124,659.26,-32.363
4.275,0.0005,1.1821,1.1807,-33.8936,150.8403,6.0924,44.3,92523.0,,,,,,,
4.28,,,,,,,,,255.385,1.415,-0.193,-9.895,-0.167,658.36,-32.467
4.285,-0.0293,1.1655,1.2617,-19.4678,107.6331,7.8431,44.3,92584.0,,,,,,,
4.29,,,,,,,,,254.931,1.546,-0.2,-9.875,-0.198,653.88,-32.646
4.295,0.0757,1.1685,1.2764,-14.4258,74.8599,8.7535,44.3,92573.0,,,,,,,
4.3,,,,,,,,,254.458,1.639,-0.207,-9.86,-0.215,650.2,-32.646
4.305,0.0903,1.166,1.1982,-9.4538,42.2269,10.5742,44.3,92493.0,,,,,,,
4.31,,,,,,,,,253.977,1.704,-0.216,-9.848,-0.227,649.13,-32.467
4.315,-0.0312,1.1577,1.0674,22.8992,7.8431,12.1849,44.3,92473.0,,,,,,,
4.32,,,,,,,,,253.489,1.742,-0.225,-9.841,-0.234,649.13,-32.448
4.325,-0.0142,1.1406,1.0068,1.8207,8.1933,9.5238,44.3,92519.0,,,,,,,
4.33,,,,,,,,,252.994,1.75,-0.232,-9.84,-0.213,649.13,-32.448
4.335,0.1406,1.1021,0.876,44.3978,-3.5714,6.8627,44.3,92474.0,,,,,,,
4.34,,,,,,,,,252.489,1.758,-0.24,-9.838,-0.209,647.96,-32.448
4.345,0.0811,1.084,0.8457,27.1709,-1.8908,6.2325,44.3,92429.0,,,,,,,
4.35,,,,,,,,,251.979,1.757,-0.239,-9.839,-0.17,647.96,-32.4
4.355,0.0469,1.0688,0.6777,7.6331,13.0952,4.1317,44.3,92321.0,,,,,,,
4.36,,,,,,,,,251.467,1.757,-0.24,-9.84,-0.145,649.94,-32.391
4.365,0.1538,1.0596,0.5137,24.1597,-0.7703,1.5406,44.3,92227.0,,,,,,,
4.37,,,,,,,,,250.951,1.769,-0.243,-9.838,-0.138,649.94,-32.24
4.375,0.1401,1.0366,0.3354,33.6134,1.1204,-0.6303,44.3,92141.0,,,,,,,
4.38,,,,,,,,,250.438,1.77,-0.24,-9.838,-0.117,651.64,-31.909
4.385,0.1338,1.0308,0.2207,54.4818,-16.7367,-0.8403,44.3,92006.0,,,,,,,
4.39,,,,,,,,,249.925,1.773,-0.234,-9.838,-0.088,651.73,-31.161
4.395,0.1011,1.0161,0.1084,28.5014,-11.4146,-3.3613,44.3,91900.0,,,,,,,
4.4,,,,,,,,,249.422,1.76,-0.226,-9.841,-0.04,655.67,-30.811
4.405,0.0747,1.0015,-0.1152,28.7815,-16.1064,-4.6218,44.3,91801.0,,,,,,,
4.41,,,,,,,,,248.946,1.752,-0.218,-9.842,-0.016,665.36,-30.518
4.415,0.0361,0.9932,-0.2163,24.5798,-21.6387,-4.972,44.3,91758.0,,,,,,,
4.42,,,,,,,,,248.492,1.74,-0.21,-9.845,0.008,673.8,-30.338
4.425,0.0156,0.9897,-0.2368,11.4846,-8.4734,-4.4818,44.3,91634.0,,,,,,,
4.43,,,,,,,,,248.059,1.722,-0.202,-9.848,0.029,681.53,-29.894
4.435,-0.0679,0.9917,-0.2324,10.9944,-12.3249,-6.3025,44.3,91623.0,,,,,,,
4.44,,,,,,,,,247.659,1.716,-0.196,-9.849,0.039,693.67,-29.78
4.445,-0.0581,0.9727,-0.1812,2.9412,-5.6723,-5.7423,44.3,91515.0,,,,,,,
4.45,,,,,,,,,247.284,1.707,-0.189,-9.851,0.048,703.22,-29.496
4.455,-0.0723,0.978,-0.1948,9.5238,-11.2745,-5.3221,44.3,91484.0,,,,,,,
4.46,,,,,,,,,246.933,1.703,-0.184,-9.852,0.05,712.14,-29.212
4.465,-0.0845,0.9775,-0.1367,4.7619,-8.0532,-4.7619,44.3,91474.0,,,,,,,
4.47,,,,,,,,,246.589,1.694,-0.178,-9.853,0.058,716.02,-29.052
4.475,-0.0732,0.9824,-0.0845,-11.6947,3.2213,-3.9916,44.3,91436.0,,,,,,,
4.48,,,,,,,,,246.272,1.688,-0.173,-9.854,0.061,727.21,-29.023
4.485,-0.1484,0.9673,0.0137,-17.8571,-0.3501,-3.1513,44.3,91431.0,,,,,,,
4.49,,,,,,,,,245.951,1.692,-0.172,-9.854,0.051,728.2,-28.985
4.495,-0.1079,0.9639,0.1079,-15.056,-2.521,-1.3305,44.3,91452.0,,,,,,,
4.5,,,,,,,,,245.655,1.692,-0.172,-9.854,0.036,737.96,-28.843
4.505,-0.1274,0.9751,0.1431,-6.3725,-4.6218,-0.07,44.3,91415.0,,,,,,,
4.51,,,,,,,,,245.36,1.691,-0.173,-9.854,0.023,740.76,-28.758
4.515,-0.0713,0.9668,0.2231,-29.6218,-5.8824,2.591,44.3,91409.0,,,,,,,
4.52,,,,,,,,,245.061,1.688,-0.174,-9.854,0.018,741.66,-28.749
4.525,-0.0435,0.9702,0.3486,-18.4174,-18.8375,3.7115,44.3,91428.0,,,,,,,
4.53,,,,,,,,,244.761,1.683,-0.18,-9.855,-0.006,743.65,-28.702
4.535,-0.0879,0.9688,0.4326,-25.8403,-22.479,5.6022,44.3,91428.0,,,,,,,
4.54,,,,,,,,,244.459,1.667,-0.186,-9.858,-0.021,745.1,-28.654
4.545,0.0068,0.9678,0.5396,-28.7815,-31.6527,7.3529,44.3,91434.0,,,,,,,
4.55,,,,,,,,,244.151,1.649,-0.195,-9.861,-0.041,745.55,-28.607
4.555,0.0156,0.9707,0.5381,-34.8739,-39.2857,8.4034,44.3,91404.0,,,,,,,
4.56,,,,,,,,,243.836,1.622,-0.206,-9.865,-0.064,745.55,-28.579
4.565,-0.0298,0.9697,0.582,-23.7395,-56.9328,8.9636,44.3,91441.0,,,,,,,
4.57,,,,,,,,,243.514,1.588,-0.218,-9.87,-0.092,745.83,-28.579
4.575,0.0127,0.9692,0.6226,0.7703,-64.4258,7.0728,44.3,91490.0,,,,,,,
4.58,,,,,,,,,243.185,1.54,-0.229,-9.877,-0.11,745.83,-28.579
4.585,0.0938,0.9683,0.6519,-26.8207,-39.2157,5.3221,44.3,91490.0,,,,,,,
4.59,,,,,,,,,242.849,1.485,-0.236,-9.885,-0.107,745.83,-28.588
4.595,0.0283,0.958,0.6416,-1.4706,-51.8908,4.972,44.3,91487.0,,,,,,,
4.6,,,,,,,,,242.505,1.452,-0.245,-9.89,-0.128,745.83,-28.588
4.605,0.0425,0.9521,0.5728,13.5154,-40.1261,1.7507,44.3,91408.0,,,,,,,
4.61,,,,,,,,,242.153,1.408,-0.25,-9.896,-0.127,745.28,-28.579
4.615,0.0962,0.9429,0.5454,-9.1737,-30.2521,-0.6303,44.3,91375.0,,,,,,,
4.62,,,,,,,,,241.794,1.375,-0.25,-9.901,-0.114,745.28,-28.579
4.625,0.0093,0.9346,0.5298,13.0252,-35.9244,-2.0308,44.3,91348.0,,,,,,,
4.63,,,,,,,,,241.428,1.349,-0.251,-9.904,-0.121,745.28,-28.569
4.635,0.0527,0.9287,0.502,8.1232,-12.7451,-3.6415,44.3,91314.0,,,,,,,
4.64,,,,,,,,,241.056,1.319,-0.248,-9.908,-0.109,745.28,-28.56
4.645,0.0635,0.9204,0.4385,24.3697,-29.4818,-3.2213,44.3,91278.0,,,,,,,
4.65,,,,,,,,,240.685,1.309,-0.244,-9.91,-0.102,747.63,-28.37
4.655,0.0215,0.9033,0.3472,30.8824,-40.9664,-4.1317,44.3,91204.0,,,,,,,
4.66,,,,,,,,,240.31,1.285,-0.239,-9.913,-0.08,747.63,-28.257
4.665,0.0503,0.8945,0.333,17.1569,-36.4846,-4.1317,44.3,91112.0,,,,,,,
4.67,,,,,,,,,239.938,1.251,-0.232,-9.918,-0.053,750.62,-28.077
4.675,0.0024,0.894,0.2812,11.5546,-44.4678,-4.1317,44.3,91081.0,,,,,,,
4.68,,,,,,,,,239.569,1.221,-0.227,-9.922,-0.037,753.06,-27.916
4.685,-0.0059,0.8853,0.2329,17.7171,-52.451,-3.5714,44.3,91023.0,,,,,,,
4.69,,,,,,,,,239.204,1.184,-0.222,-9.927,-0.026,756.14,-27.803
4.695,-0.0059,0.8789,0.1572,13.2353,-57.6331,-2.8711,44.3,90975.0,,,,,,,
4.7,,,,,,,,,238.844,1.139,-0.218,-9.932,-0.01,759.4,-27.642
4.705,-0.022,0.8701,0.1367,9.3838,-64.0056,-2.521,44.3,90914.0,,,,,,,
4.71,,,,,,,,,238.501,1.091,-0.214,-9.937,0.001,766.11,-27.311
4.715,-0.0317,0.8584,0.0776,2.3109,-63.2353,-2.3109,44.3,90870.0,,,,,,,
4.72,,,,,,,,,238.179,1.036,-0.211,-9.943,0.011,774.45,-27.141
4.725,-0.042,0.8711,0.0894,4.2717,-59.944,-2.381,44.3,90839.0,,,,,,,
4.73,,,,,,,,,237.858,0.982,-0.209,-9.949,0.014,777.26,-27.131
4.735,-0.0884,0.8638,0.1201,-7.2829,-59.1036,-2.381,44.3,90826.0,,,,,,,
4.74,,,,,,,,,237.549,0.931,-0.206,-9.954,0.019,782.53,-26.961
4.745,-0.0615,0.854,0.0801,2.2409,-47.409,-1.6807,44.3,90799.0,,,,,,,
4.75,,,,,,,,,237.248,0.881,-0.205,-9.958,0.014,786.89,-26.838
4.755,-0.0693,0.8506,0.1445,-7.9832,-46.7087,-2.3109,44.3,90748.0,,,,,,,
4.76,,,,,,,,,236.957,0.841,-0.203,-9.962,0.017,792.43,-26.687
4.765,-0.0781,0.8467,0.1782,-1.8207,-51.0504,-2.3109,44.3,90718.0,,,,,,,
4.77,,,,,,,,,236.673,0.801,-0.202,-9.965,0.011,796.43,-26.668
4.775,-0.0581,0.8486,0.2031,5.8123,-47.2689,-1.0504,44.3,90665.0,,,,,,,
4.78,,,,,,,,,236.391,0.757,-0.2,-9.969,0.01,799.24,-26.545
4.785,-0.105,0.8535,0.2378,3.7115,-45.028,-1.0504,44.3,90665.0,,,,,,,
4.79,,,,,,,,,236.107,0.717,-0.199,-9.972,0.016,800.43,-26.441
4.795,-0.0811,0.8457,0.2886,7.563,-36.6947,-1.1905,44.3,90635.0,,,,,,,
4.8,,,,,,,,,235.824,0.679,-0.197,-9.974,0.021,802.88,-26.356
4.805,-0.0728,0.8398,0.3105,-10.5742,-34.7339,0.4202,44.3,90673.0,,,,,,,
4.81,,,,,,,,,235.548,0.648,-0.196,-9.976,0.028,807.52,-26.346
4.815,-0.1211,0.8516,0.2725,-11.8347,-43.2073,1.5406,44.3,90639.0,,,,,,,
4.82,,,,,,,,,235.274,0.619,-0.197,-9.978,0.02,810.26,-26.289
4.825,-0.0488,0.8501,0.3384,-6.6527,-43.8375,1.6106,44.3,90537.0,,,,,,,
4.83,,,,,,,,,235.005,0.582,-0.199,-9.981,0.011,814.35,-26.289
4.835,-0.042,0.8486,0.3232,-4.8319,-35.7843,1.1905,44.3,90590.0,,,,,,,
4.84,,,,,,,,,234.732,0.544,-0.201,-9.983,0.006,815.08,-26.28
4.845,-0.0605,0.8433,0.3643,3.8515,-41.1064,3.4314,44.3,90519.0,,,,,,,
4.85,,,,,,,,,234.452,0.514,-0.202,-9.984,0.003,815.08,-26.251
4.855,-0.0132,0.8521,0.3784,-5.4622,-44.7479,4.4818,44.3,90514.0,,,,,,,
4.86,,,,,,,,,234.172,0.479,-0.205,-9.986,0.007,817.45,-26.251
4.865,0.001,0.8511,0.3979,-0.7003,-52.2409,4.6919,44.3,90515.0,,,,,,,
4.87,,,,,,,,,233.886,0.441,-0.209,-9.988,0.004,817.81,-26.251
4.875,0.0312,0.8569,0.3608,11.3445,-62.465,4.902,44.3,90521.0,,,,,,,
4.88,,,,,,,,,233.605,0.396,-0.213,-9.989,0.005,821.91,-26.28
4.885,-0.0293,0.8535,0.3394,-15.3361,-47.479,3.5714,44.3,90466.0,,,,,,,
4.89,,,,,,,,,233.333,0.343,-0.217,-9.991,0.016,826.74,-26.28
4.895,0.001,0.8599,0.3667,-3.9216,-36.0644,1.6807,44.3,90438.0,,,,,,,
4.9,,,,,,,,,233.057,0.302,-0.221,-9.992,0.004,828.2,-26.299
4.905,0.0635,0.8574,0.354,3.7815,-37.9552,0.6303,44.3,90398.0,,,,,,,
4.91,,,,,,,,,232.775,0.272,-0.222,-9.993,0.002,828.38,-26.308
4.915,0.0054,0.8628,0.2925,6.6527,-30.3922,-0.7703,44.3,90325.0,,,,,,,
4.92,,,,,,,,,232.487,0.24,-0.223,-9.994,0.006,828.75,-26.318
4.925,-0.021,0.8569,0.2764,1.8908,-24.2297,-1.6106,44.2,90311.0,,,,,,,
4.93,,,,,,,,,232.192,0.214,-0.222,-9.995,0.013,828.84,-26.346
4.935,0.0308,0.8511,0.3101,-0.9804,-15.2661,-3.3613,44.3,90288.0,,,,,,,
4.94,,,,,,,,,231.903,0.194,-0.221,-9.995,0.015,833.22,-26.412
4.945,-0.0527,0.876,0.2319,-1.3305,-5.9524,-4.4118,44.3,90222.0,,,,,,,
4.95,,,,,,,,,231.615,0.182,-0.218,-9.995,0.015,835.78,-26.412
4.955,-0.0234,0.8672,0.1909,12.8151,-14.6359,-4.7619,44.3,90188.0,,,,,,,
4.96,,,,,,,,,231.331,0.177,-0.214,-9.996,0.014,839.43,-26.412
4.965,-0.001,0.8594,0.2451,11.3445,-15.4762,-4.4818,44.3,90162.0,,,,,,,
4.97,,,,,,,,,231.06,0.166,-0.21,-9.996,0.026,846.09,-26.422
4.975,-0.1138,0.8691,0.2676,-5.3221,-5.5322,-4.8319,44.3,90154.0,,,,,,,
4.98,,,,,,,,,230.786,0.153,-0.206,-9.996,0.036,847.37,-26.46
4.985,-0.0825,0.8682,0.1958,-12.605,-3.3613,-3.7115,44.3,90094.0,,,,,,,
4.99,,,,,,,,,230.511,0.15,-0.202,-9.996,0.032,849.47,-26.469
4.995,-0.0615,0.8574,0.1768,-10.014,-2.3109,-3.2913,44.3,90090.0,,,,,,,
5.0,,,,,,,,,230.248,0.147,-0.199,-9.996,0.021,855.51,-26.526
5.005,-0.1904,0.8296,0.2251,-17.0168,-8.0532,-2.1008,44.3,89984.0,,,,,,,
5.01,,,,,,,,,229.986,0.146,-0.196,-9.996,0.013,858.62,-26.526
5.015,-0.0371,0.7817,0.1997,-6.5126,-3.5714,-2.521,44.2,89981.0,,,,,,,
5.02,,,,,,,,,229.726,0.14,-0.195,-9.997,0.0,861.0,-26.46
5.025,-0.1509,0.7812,0.1997,-1.5406,2.7311,-1.9608,44.3,89912.0,,,,,,,
5.03,,,,,,,,,229.461,0.137,-0.193,-9.997,-0.006,861.73,-26.46
5.035,-0.1655,0.771,0.2056,-0.7003,5.5322,-0.6303,44.3,89891.0,,,,,,,
5.04,,,,,,,,,229.205,0.141,-0.191,-9.997,-0.007,867.22,-26.46
5.045,-0.0347,0.7617,0.208,-0.5602,10.7143,-0.1401,44.3,89863.0,,,,,,,
5.05,,,,,,,,,228.944,0.146,-0.191,-9.997,-0.007,867.58,-26.422
5.055,-0.1377,0.7632,0.1719,9.2437,14.916,-0.07,44.2,89809.0,,,,,,,
5.06,,,,,,,,,228.711,0.157,-0.191,-9.996,-0.008,877.29,-25.883
5.065,-0.0977,0.7612,0.2061,-7.0728,24.5098,1.4006,44.3,89795.0,,,,,,,
5.07,,,,,,,,,228.481,0.171,-0.191,-9.996,0.0,877.57,-24.955
5.075,-0.0439,0.7676,0.1777,-16.2465,22.0588,2.521,44.2,89744.0,,,,,,,
5.08,,,,,,,,,228.263,0.193,-0.192,-9.996,-0.006,883.89,-24.946
5.085,-0.0444,0.7642,0.1958,-2.6611,12.3249,3.5714,44.3,89719.0,,,,,,,
5.09,,,,,,,,,228.046,0.213,-0.195,-9.995,-0.02,885.82,-24.747
5.095,0.0054,0.7593,0.2261,-0.2101,8.1232,6.7227,44.3,89755.0,,,,,,,
5.1,,,,,,,,,227.83,0.224,-0.198,-9.995,-0.022,888.39,-24.681
5.105,0.0278,0.7627,0.1953,-6.0924,7.1429,6.6527,44.3,89670.0,,,,,,,
5.11,,,,,,,,,227.622,0.232,-0.204,-9.995,-0.022,893.34,-24.615
5.115,0.0317,0.7612,0.2256,-2.6611,3.5714,6.0924,44.3,89663.0,,,,,,,
5.12,,,,,,,,,227.412,0.24,-0.21,-9.994,-0.027,894.63,-24.596
5.125,0.0469,0.7612,0.2578,-2.591,0.3501,6.0924,44.3,89640.0,,,,,,,
5.13,,,,,,,,,227.205,0.244,-0.215,-9.994,-0.029,898.3,-24.586
5.135,0.0532,0.7656,0.2231,-10.5742,3.9916,4.6218,44.3,89586.0,,,,,,,
5.14,,,,,,,,,226.995,0.245,-0.221,-9.994,-0.031,899.31,-24.568
5.145,0.085,0.7642,0.2129,-12.9552,12.1849,2.8011,44.2,89556.0,,,,,,,
5.15,,,,,,,,,226.784,0.249,-0.225,-9.994,-0.04,901.61,-24.586
5.155,0.0483,0.7656,0.251,-9.1036,22.479,0.4202,44.2,89525.0,,,,,,,
5.16,,,,,,,,,226.579,0.26,-0.228,-9.993,-0.051,906.11,-24.586
5.165,0.0488,0.7656,0.2432,-6.1625,25.9104,-0.9804,44.2,89546.0,,,,,,,
5.17,,,,,,,,,226.37,0.281,-0.228,-9.993,-0.059,906.75,-24.615
5.175,0.0425,0.77,0.2368,-1.9608,24.5798,-2.1008,44.3,89490.0,,,,,,,
5.18,,,,,,,,,226.159,0.304,-0.228,-9.992,-0.064,908.86,-24.615
5.185,0.0176,0.7666,0.2627,0.5602,31.5126,-3.9216,44.3,89446.0,,,,,,,
5.19,,,,,,,,,225.956,0.326,-0.226,-9.991,-0.066,913.83,-24.615
5.195,0.0117,0.7686,0.2983,2.381,36.1345,-5.4622,44.2,89400.0,,,,,,,
5.2,,,,,,,,,225.754,0.355,-0.222,-9.99,-0.066,916.59,-24.643
5.205,-0.0215,0.7666,0.2993,2.521,52.0308,-7.0028,44.2,89443.0,,,,,,,
5.21,,,,,,,,,225.548,0.387,-0.217,-9.989,-0.065,917.51,-24.643
5.215,-0.0645,0.7661,0.2637,1.9608,59.1737,-7.7731,44.2,89399.0,,,,,,,
5.22,,,,,,,,,225.34,0.433,-0.211,-9.988,-0.064,919.44,-24.643
5.225,-0.0405,0.7661,0.2788,4.4118,62.7451,-8.0532,44.3,89331.0,,,,,,,
5.23,,,,,,,,,225.135,0.486,-0.204,-9.985,-0.063,922.66,-24.653
5.235,-0.0767,0.7627,0.2944,4.0616,61.8347,-7.9832,44.2,89329.0,,,,,,,
5.24,,,,,,,,,224.935,0.541,-0.196,-9.983,-0.06,926.71,-24.653
5.245,-0.1157,0.7524,0.2881,-6.8627,66.1765,-7.563,44.2,89277.0,,,,,,,
5.25,,,,,,,,,224.729,0.596,-0.189,-9.98,-0.058,926.99,-24.653
5.255,-0.1436,0.7632,0.2686,-5.042,75.07,-7.2829,44.2,89261.0,,,,,,,
5.26,,,,,,,,,224.527,0.655,-0.182,-9.976,-0.065,930.95,-24.653
5.265,-0.1333,0.7549,0.251,-0.6303,83.1232,-6.4426,44.2,89257.0,,,,,,,
5.27,,,,,,,,,224.319,0.721,-0.176,-9.972,-0.071,931.04,-24.653
5.275,-0.1558,0.7539,0.2334,-4.2017,84.0336,-4.2017,44.2,89195.0,,,,,,,
5.28,,,,,,,,,224.122,0.794,-0.17,-9.966,-0.073,937.31,-24.653
5.285,-0.1704,0.7515,0.252,-2.8711,77.521,-1.6106,44.2,89202.0,,,,,,,
5.29,,,,,,,,,223.92,0.868,-0.166,-9.96,-0.077,937.49,-24.596
5.295,-0.1426,0.75,0.228,-19.3277,79.6919,0.3501,44.2,89139.0,,,,,,,
5.3,,,,,,,,,223.725,0.936,-0.164,-9.954,-0.081,942.28,-24.586
5.305,-0.1348,0.7515,0.209,-2.8011,70.5182,2.591,44.2,89109.0,,,,,,,
5.31,,,,,,,,,223.528,1.006,-0.166,-9.947,-0.098,943.76,-24.435
5.315,-0.1167,0.7476,0.2168,-4.1317,67.437,4.972,44.2,89065.0,,,,,,,
5.32,,,,,,,,,223.326,1.068,-0.168,-9.94,-0.101,944.13,-24.416
5.325,-0.0649,0.7363,0.2012,-3.0812,64.0056,7.0028,44.2,89082.0,,,,,,,
5.33,,,,,,,,,223.132,1.127,-0.172,-9.934,-0.105,949.2,-24.388
5.335,-0.0444,0.7456,0.1855,2.591,58.6835,8.4034,44.2,88992.0,,,,,,,
5.34,,,,,,,,,222.934,1.184,-0.178,-9.927,-0.108,949.85,-24.369
5.345,-0.0317,0.7422,0.1768,0.4202,61.7647,9.6639,44.2,89020.0,,,,,,,
5.35,,,,,,,,,222.743,1.235,-0.184,-9.921,-0.105,955.02,-24.369
5.355,-0.0029,0.7402,0.1714,-8.3333,56.7227,10.7843,44.2,88961.0,,,,,,,
5.36,,,,,,,,,222.555,1.29,-0.192,-9.913,-0.104,957.79,-24.341
5.365,-0.0015,0.7354,0.1738,-3.5714,51.5406,11.4146,44.2,88963.0,,,,,,,
5.37,,,,,,,,,222.367,1.34,-0.202,-9.907,-0.111,960.28,-24.293
5.375,0.0381,0.7285,0.1523,-16.3165,60.2241,11.3445,44.2,88914.0,,,,,,,
5.38,,,,,,,,,222.177,1.385,-0.212,-9.9,-0.113,961.85,-24.255
5.385,0.0879,0.7397,0.1528,-18.4874,53.2213,11.6246,44.2,88869.0,,,,,,,
5.39,,,,,,,,,221.993,1.438,-0.223,-9.892,-0.127,966.01,-24.189
5.395,0.1006,0.7349,0.228,-9.5238,49.6499,11.1345,44.2,88845.0,,,,,,,
5.4,,,,,,,,,221.81,1.485,-0.235,-9.885,-0.142,968.6,-24.151
5.405,0.1123,0.7471,0.2334,-14.2857,42.0168,9.7339,44.2,88872.0,,,,,,,
5.41,,,,,,,,,221.628,1.528,-0.245,-9.878,-0.15,971.28,-24.142
5.415,0.1436,0.7441,0.2119,6.0924,32.7031,8.1232,44.2,88818.0,,,,,,,
5.42,,,,,,,,,221.439,1.565,-0.255,-9.872,-0.161,971.47,-24.142
5.425,0.1372,0.749,0.2236,-3.0112,32.563,6.7227,44.3,88776.0,,,,,,,
5.43,,,,,,,,,221.257,1.594,-0.26,-9.867,-0.155,975.82,-24.151
5.435,0.1592,0.7378,0.2256,6.6527,29.902,3.2213,44.2,88750.0,,,,,,,
5.44,,,,,,,,,221.079,1.623,-0.266,-9.862,-0.157,979.7,-24.151
5.445,0.1743,0.7441,0.2324,4.972,24.5098,1.4006,44.2,88725.0,,,,,,,
5.45,,,,,,,,,220.894,1.65,-0.268,-9.857,-0.152,979.98,-24.142
5.455,0.1372,0.7476,0.2725,-2.8011,29.4118,-1.4006,44.2,88717.0,,,,,,,
5.46,,,,,,,,,220.71,1.672,-0.268,-9.854,-0.147,982.2,-24.142
5.465,0.1362,0.7451,0.2583,-9.6639,30.1821,-2.6611,44.2,88687.0,,,,,,,
5.47,,,,,,,,,220.525,1.699,-0.267,-9.849,-0.15,984.7,-24.227
5.475,0.0894,0.7358,0.2329,11.1345,22.409,-4.4118,44.2,88662.0,,,,,,,
5.48,,,,,,,,,220.344,1.725,-0.265,-9.845,-0.159,988.59,-24.227
5.485,0.0884,0.7485,0.2554,6.0924,26.4706,-6.7227,44.3,88610.0,,,,,,,
5.49,,,,,,,,,220.163,1.745,-0.26,-9.841,-0.151,991.0,-24.227
5.495,0.0479,0.749,0.2666,10.1541,30.6022,-8.6835,44.2,88618.0,,,,,,,
5.5,,,,,,,,,219.983,1.769,-0.253,-9.837,-0.147,993.32,-24.246
5.505,0.0244,0.7505,0.2114,-3.4314,40.9664,-10.084,44.2,88590.0,,,,,,,
5.51,,,,,,,,,219.797,1.796,-0.243,-9.833,-0.14,994.06,-24.246
5.515,0.0288,0.749,0.2222,-1.1204,41.6667,-10.6443,44.2,88528.0,,,,,,,
5.52,,,,,,,,,219.612,1.832,-0.235,-9.826,-0.145,996.84,-24.293
5.525,-0.0488,0.7524,0.2271,10.1541,42.3669,-11.8347,44.2,88507.0,,,,,,,
5.53,,,,,,,,,219.427,1.869,-0.225,-9.82,-0.148,999.16,-24.293
5.535,-0.0601,0.7637,0.229,10.2241,43.9076,-11.9748,44.2,88491.0,,,,,,,
5.54,,,,,,,,,219.247,1.906,-0.213,-9.813,-0.142,1003.24,-24.312
5.545,-0.063,0.7466,0.1909,5.7423,42.9972,-12.0448,44.2,88463.0,,,,,,,
5.55,,,,,,,,,219.062,1.944,-0.2,-9.806,-0.136,1003.98,-24.322
5.555,-0.1411,0.751,0.1714,7.9832,40.1961,-11.0644,44.2,88440.0,,,,,,,
5.56,,,,,,,,,218.875,1.982,-0.189,-9.798,-0.133,1005.84,-24.322
5.565,-0.1992,0.7432,0.1533,1.7507,35.6443,-9.6639,44.2,88416.0,,,,,,,
5.57,,,,,,,,,218.699,2.017,-0.177,-9.791,-0.129,1011.59,-24.322
5.575,-0.1807,0.7397,0.165,9.5938,34.2437,-8.6134,44.2,88374.0,,,,,,,
5.58,,,,,,,,,218.522,2.049,-0.169,-9.785,-0.129,1013.55,-24.322
5.585,-0.1567,0.7266,0.1304,4.4818,43.6975,-6.7227,44.2,88345.0,,,,,,,
5.59,,,,,,,,,218.341,2.079,-0.159,-9.779,-0.122,1015.03,-24.322
5.595,-0.167,0.7236,0.1382,5.3922,47.3389,-4.0616,44.2,88282.0,,,,,,,
5.6,,,,,,,,,218.162,2.117,-0.152,-9.771,-0.12,1017.63,-24.322
5.605,-0.2144,0.7305,0.1157,-1.5406,40.8964,-1.1204,44.2,88249.0,,,,,,,
5.61,,,,,,,,,217.982,2.158,-0.147,-9.762,-0.117,1019.77,-24.274
5.615,-0.1846,0.7178,0.0713,4.7619,37.1849,1.2605,44.2,88202.0,,,,,,,
5.62,,,,,,,,,217.803,2.194,-0.146,-9.754,-0.118,1022.0,-24.208
5.625,-0.1392,0.7261,0.0928,3.8515,38.4454,3.1513,44.3,88193.0,,,,,,,
5.63,,,,,,,,,217.629,2.227,-0.146,-9.747,-0.114,1025.9,-24.142
5.635,-0.1562,0.7153,0.1172,-8.0532,38.3053,5.8824,44.2,88162.0,,,,,,,
5.64,,,,,,,,,217.457,2.26,-0.147,-9.739,-0.11,1028.6,-23.962
5.645,-0.1099,0.7148,0.1191,0.8403,38.7255,7.563,44.2,88132.0,,,,,,,
5.65,,,,,,,,,217.297,2.294,-0.154,-9.731,-0.116,1034.46,-23.886
5.655,-0.04,0.7114,0.1069,4.6919,33.4734,9.1737,44.2,88114.0,,,,,,,
5.66,,,,,,,,,217.139,2.327,-0.16,-9.723,-0.114,1037.53,-23.877
5.665,-0.0073,0.7207,0.1553,-17.2269,40.6162,10.6443,44.2,88118.0,,,,,,,
5.67,,,,,,,,,216.987,2.357,-0.166,-9.716,-0.109,1041.91,-23.83
5.675,0.042,0.7153,0.1592,-1.0504,33.8936,10.7143,44.2,88095.0,,,,,,,
5.68,,,,,,,,,216.831,2.392,-0.178,-9.707,-0.121,1042.75,-23.773
5.685,0.0884,0.7197,0.1987,2.8711,32.9832,10.4342,44.2,88042.0,,,,,,,
5.69,,,,,,,,,216.678,2.422,-0.187,-9.699,-0.12,1045.64,-23.716
5.695,0.0786,0.7261,0.2593,-7.2829,27.8011,10.2941,44.2,88004.0,,,,,,,
5.7,,,,,,,,,216.525,2.451,-0.195,-9.692,-0.116,1048.43,-23.716
5.705,0.1211,0.7202,0.2407,-9.0336,25.4902,10.014,44.2,88031.0,,,,,,,
5.71,,,,,,,,,216.369,2.475,-0.205,-9.685,-0.12,1049.73,-23.716
5.715,0.146,0.7251,0.2168,-7.3529,19.6779,8.7535,44.2,88029.0,,,,,,,
5.72,,,,,,,,,216.207,2.497,-0.215,-9.679,-0.125,1050.11,-23.754
5.725,0.1421,0.729,0.2554,-10.084,17.9272,7.2829,44.2,87956.0,,,,,,,
5.73,,,,,,,,,216.043,2.515,-0.224,-9.675,-0.13,1051.88,-23.754
5.735,0.1431,0.7227,0.2891,5.042,10.5042,5.7423,44.2,87964.0,,,,,,,
5.74,,,,,,,,,215.886,2.531,-0.232,-9.67,-0.137,1056.82,-23.763
5.745,0.1675,0.7251,0.2495,-6.6527,11.2745,4.4118,44.2,87934.0,,,,,,,
5.75,,,,,,,,,215.726,2.541,-0.236,-9.667,-0.131,1057.85,-23.773
5.755,0.1963,0.7236,0.2622,-13.7955,3.2213,3.0112,44.2,87913.0,,,,,,,
5.76,,,,,,,,,215.558,2.551,-0.241,-9.665,-0.136,1058.03,-23.811
5.765,0.1787,0.7202,0.2715,1.9608,-1.0504,0.7003,44.2,87870.0,,,,,,,
5.77,,,,,,,,,215.391,2.554,-0.246,-9.663,-0.146,1060.37,-23.83
5.775,0.1392,0.7188,0.2891,-3.4314,-3.0812,-0.8403,44.2,87844.0,,,,,,,
5.78,,,,,,,,,215.227,2.554,-0.247,-9.663,-0.144,1064.1,-23.83
5.785,0.1323,0.7217,0.2954,6.7927,-13.9356,-2.2409,44.2,87853.0,,,,,,,
5.79,,,,,,,,,215.059,2.553,-0.247,-9.664,-0.147,1064.85,-23.83
5.795,0.1177,0.7134,0.3022,-6.4426,-12.8151,-3.5014,44.2,87809.0,,,,,,,
5.8,,,,,,,,,214.89,2.542,-0.243,-9.667,-0.141,1066.9,-23.811
5.805,0.1021,0.7153,0.2148,-9.3137,-15.6863,-4.2017,44.2,87778.0,,,,,,,
5.81,,,,,,,,,214.72,2.532,-0.242,-9.669,-0.147,1068.86,-23.811
5.815,0.1099,0.7197,0.1982,6.9328,-20.8683,-4.7619,44.2,87775.0,,,,,,,
5.82,,,,,,,,,214.555,2.519,-0.241,-9.673,-0.155,1072.88,-23.792
5.825,0.0522,0.7139,0.2412,2.8011,-22.0588,-6.1625,44.2,87740.0,,,,,,,
5.83,,,,,,,,,214.388,2.503,-0.235,-9.677,-0.149,1074.46,-23.763
5.835,0.0498,0.7051,0.1875,-3.0812,-22.549,-5.8123,44.2,87715.0,,,,,,,
5.84,,,,,,,,,214.217,2.485,-0.23,-9.682,-0.147,1075.3,-23.754
5.845,0.04,0.707,0.1265,-2.381,-26.4006,-5.8123,44.2,87677.0,,,,,,,
5.85,,,,,,,,,214.049,2.467,-0.226,-9.687,-0.151,1078.58,-23.735
5.855,0.0142,0.7017,0.1631,0.7003,-27.7311,-5.5322,44.2,87658.0,,,,,,,
5.86,,,,,,,,,213.883,2.445,-0.222,-9.692,-0.153,1081.47,-23.669
5.865,0.0137,0.7041,0.1743,11.5546,-31.1625,-5.5322,44.2,87619.0,,,,,,,
5.87,,,,,,,,,213.711,2.422,-0.218,-9.698,-0.153,1081.75,-23.64
5.875,0.0068,0.6982,0.1157,7.493,-26.1204,-4.972,44.2,87561.0,,,,,,,
5.88,,,,,,,,,213.542,2.397,-0.211,-9.704,-0.143,1085.03,-23.631
5.885,-0.0283,0.7007,0.1216,6.3025,-28.8515,-4.3417,44.2,87535.0,,,,,,,
5.89,,,,,,,,,213.375,2.376,-0.205,-9.71,-0.137,1087.37,-23.508
5.895,-0.0596,0.7021,0.1714,8.7535,-29.3417,-3.9916,44.2,87524.0,,,,,,,
5.9,,,,,,,,,213.211,2.352,-0.201,-9.716,-0.132,1090.92,-23.47
5.905,-0.0464,0.6992,0.1362,10.7843,-29.972,-2.7311,44.2,87477.0,,,,,,,
5.91,,,,,,,,,213.046,2.329,-0.196,-9.722,-0.124,1092.7,-23.451
5.915,-0.0693,0.6924,0.0835,4.2017,-27.1709,-1.7507,44.2,87487.0,,,,,,,
5.92,,,,,,,,,212.886,2.304,-0.192,-9.728,-0.115,1096.35,-23.413
5.925,-0.0542,0.7031,0.1587,12.6751,-29.3417,-0.3501,44.2,87452.0,,,,,,,
5.93,,,,,,,,,212.734,2.282,-0.19,-9.733,-0.111,1101.78,-23.404
5.935,-0.0229,0.6987,0.2192,2.591,-27.381,0.7003,44.2,87433.0,,,,,,,
5.94,,,,,,,,,212.583,2.258,-0.187,-9.739,-0.099,1104.22,-23.404
5.945,-0.0571,0.7056,0.1616,1.4706,-24.7899,1.1204,44.2,87387.0,,,,,,,
5.95,,,,,,,,,212.428,2.236,-0.187,-9.744,-0.096,1105.25,-23.385
5.955,-0.0464,0.7036,0.1587,3.0112,-25.1401,2.7311,44.2,87364.0,,,,,,,
5.96,,,,,,,,,212.276,2.216,-0.188,-9.749,-0.094,1108.72,-23.385
5.965,-0.0415,0.7036,0.1821,-6.5826,-27.8711,3.3613,44.2,87366.0,,,,,,,
5.97,,,,,,,,,212.12,2.195,-0.19,-9.753,-0.09,1109.65,-23.385
5.975,-0.021,0.6982,0.1548,-0.6303,-26.1204,4.8319,44.2,87271.0,,,,,,,
5.98,,,,,,,,,211.964,2.173,-0.195,-9.758,-0.094,1112.0,-23.413
5.985,0.0063,0.6968,0.1309,-1.3305,-24.2297,5.3922,44.2,87291.0,,,,,,,
5.99,,,,,,,,,211.807,2.151,-0.199,-9.763,-0.093,1113.78,-23.413
5.995,0.0142,0.7031,0.1724,-1.9608,-27.381,5.3922,44.2,87294.0,,,,,,,
6.0,,,,,,,,,211.655,2.132,-0.204,-9.767,-0.093,1118.1,-23.357
6.005,0.0049,0.7344,0.2065,0.2801,-25.9804,5.8824,44.2,87264.0,,,,,,,
6.01,,,,,,,,,211.502,2.109,-0.209,-9.772,-0.093,1120.07,-23.432
6.015,0.0493,0.7324,0.1729,4.2017,-34.3137,6.3725,44.2,87180.0,,,,,,,
6.02,,,,,,,,,211.343,2.088,-0.215,-9.776,-0.09,1120.26,-23.432
6.025,0.0718,0.7241,0.1753,5.4622,-36.9748,6.7927,44.2,87177.0,,,,,,,
6.03,,,,,,,,,211.195,2.06,-0.22,-9.782,-0.085,1126.83,-23.442
6.035,0.0522,0.7339,0.2002,12.605,-40.056,5.8824,44.2,87190.0,,,,,,,
6.04,,,,,,,,,211.042,2.029,-0.225,-9.788,-0.078,1127.11,-23.442
6.045,0.0879,0.7417,0.1812,-5.1821,-34.5938,5.8123,44.2,87131.0,,,,,,,
6.05,,,,,,,,,210.888,1.996,-0.228,-9.795,-0.065,1128.99,-23.442
6.055,0.1172,0.7261,0.187,0.3501,-41.8768,5.6022,44.2,87125.0,,,,,,,
6.06,,,,,,,,,210.724,1.967,-0.234,-9.801,-0.067,1129.65,-23.839
6.065,0.0972,0.7271,0.1997,-0.3501,-45.2381,5.3221,44.2,87090.0,,,,,,,
6.07,,,,,,,,,210.574,1.933,-0.239,-9.808,-0.065,1136.6,-23.877
6.075,0.1211,0.7407,0.2173,-5.3922,-40.9664,3.8515,44.2,87059.0,,,,,,,
6.08,,,,,,,,,210.419,1.895,-0.244,-9.815,-0.063,1137.54,-23.896
6.085,0.1455,0.7383,0.2402,-8.6134,-44.7479,2.521,44.2,87008.0,,,,,,,
6.09,,,,,,,,,210.258,1.86,-0.248,-9.821,-0.066,1137.82,-24.0
6.095,0.127,0.7334,0.2119,-0.07,-51.2605,2.0308,44.2,87010.0,,,,,,,
6.1,,,,,,,,,210.102,1.823,-0.252,-9.828,-0.071,1142.15,-24.028
6.105,0.1328,0.7246,0.1758,3.6415,-51.9608,0.4202,44.2,86971.0,,,,,,,
6.11,,,,,,,,,209.941,1.78,-0.254,-9.836,-0.07,1142.71,-24.019
6.115,0.1265,0.7236,0.2017,0.9104,-51.9608,-0.7003,44.2,86933.0,,,,,,,
6.12,,,,,,,,,209.782,1.736,-0.254,-9.844,-0.065,1146.0,-24.019
6.125,0.1289,0.7192,0.1538,3.0812,-53.0112,-2.1008,44.2,86922.0,,,,,,,
6.13,,,,,,,,,209.626,1.693,-0.254,-9.852,-0.063,1148.92,-24.019
6.135,0.1128,0.7173,0.1494,7.0728,-54.4118,-4.3417,44.2,86913.0,,,,,,,
6.14,,,,,,,,,209.477,1.648,-0.252,-9.859,-0.059,1153.53,-23.896
6.145,0.1221,0.7148,0.1709,0.2801,-49.7199,-5.2521,44.2,86843.0,,,,,,,
6.15,,,,,,,,,209.322,1.602,-0.248,-9.867,-0.052,1153.72,-23.877
6.155,0.0796,0.7134,0.1138,-2.2409,-50.4202,-6.1625,44.2,86814.0,,,,,,,
6.16,,,,,,,,,209.171,1.56,-0.243,-9.874,-0.051,1157.21,-23.849
6.165,0.0601,0.7095,0.1094,-5.042,-51.7507,-6.4426,44.2,86776.0,,,,,,,
6.17,,,,,,,,,209.024,1.518,-0.239,-9.881,-0.053,1160.79,-23.83
6.175,0.0264,0.7012,0.1143,0.7003,-50.7003,-7.0728,44.2,86782.0,,,,,,,
6.18,,,,,,,,,208.873,1.474,-0.234,-9.887,-0.056,1161.82,-23.745
6.185,-0.0239,0.7075,0.0864,5.8824,-54.0616,-6.6527,44.2,86780.0,,,,,,,
6.19,,,,,,,,,208.719,1.431,-0.228,-9.894,-0.055,1162.67,-23.707
6.195,-0.0288,0.7085,0.1118,-3.0812,-53.7815,-5.8123,44.2,86684.0,,,,,,,
6.2,,,,,,,,,208.578,1.385,-0.222,-9.9,-0.05,1169.27,-23.659
6.205,-0.0156,0.7124,0.1064,-4.6218,-50.7003,-4.902,44.2,86715.0,,,,,,,
6.21,,,,,,,,,208.438,1.34,-0.217,-9.907,-0.052,1172.0,-23.631
6.215,-0.0225,0.7012,0.124,2.9412,-52.8011,-3.9916,44.2,86688.0,,,,,,,
6.22,,,,,,,,,208.3,1.297,-0.214,-9.913,-0.055,1175.03,-23.612
6.225,-0.0479,0.7026,0.1235,1.6106,-53.2913,-3.4314,44.2,86675.0,,,,,,,
6.23,,,,,,,,,208.156,1.252,-0.211,-9.918,-0.052,1175.21,-23.555
6.235,-0.0449,0.7031,0.1294,-6.2325,-51.6807,-2.1709,44.2,86610.0,,,,,,,
6.24,,,,,,,,,208.007,1.207,-0.208,-9.924,-0.049,1175.59,-23.536
6.245,-0.0698,0.6929,0.1191,-1.1204,-50.5602,-0.9804,44.2,86623.0,,,,,,,
6.25,,,,,,,,,207.868,1.163,-0.207,-9.929,-0.054,1181.35,-23.518
6.255,-0.083,0.6987,0.1221,5.7423,-54.2017,-0.1401,44.2,86579.0,,,,,,,
6.26,,,,,,,,,207.731,1.12,-0.206,-9.934,-0.053,1183.9,-23.432
6.265,-0.041,0.6909,0.167,1.6807,-52.7311,1.1905,44.2,86548.0,,,,,,,
6.27,,,,,,,,,207.588,1.074,-0.206,-9.939,-0.047,1184.28,-23.423
6.275,-0.0532,0.689,0.1792,-6.3025,-47.0588,2.6611,44.2,86526.0,,,,,,,
6.28,,,,,,,,,207.441,1.029,-0.207,-9.944,-0.044,1185.13,-23.423
6.285,-0.0635,0.6992,0.146,-7.1429,-46.8487,3.5014,44.2,86513.0,,,,,,,
6.29,,,,,,,,,207.301,0.989,-0.21,-9.948,-0.048,1190.04,-23.395
6.295,-0.0156,0.6919,0.1729,-4.902,-44.6078,4.6218,44.2,86495.0,,,,,,,
6.3,,,,,,,,,207.159,0.949,-0.214,-9.952,-0.053,1191.27,-23.357
6.305,-0.0117,0.6948,0.1968,-3.5014,-47.409,5.6022,44.2,86465.0,,,,,,,
6.31,,,,,,,,,207.018,0.911,-0.219,-9.955,-0.056,1194.2,-23.347
6.315,-0.0039,0.687,0.1787,-4.4118,-44.3978,6.5126,44.2,86418.0,,,,,,,
6.32,,,,,,,,,206.88,0.871,-0.224,-9.959,-0.057,1197.13,-23.272
6.325,0.0161,0.6929,0.1797,1.1204,-44.6779,6.8627,44.2,86397.0,,,,,,,
6.33,,,,,,,,,206.742,0.833,-0.231,-9.962,-0.059,1199.21,-23.234
6.335,0.0449,0.6846,0.2197,3.2913,-47.1989,6.5826,44.2,86395.0,,,,,,,
6.34,,,,,,,,,206.6,0.796,-0.237,-9.965,-0.057,1200.44,-23.234
6.345,0.0557,0.6851,0.1997,0.07,-44.5378,6.4426,44.2,86361.0,,,,,,,
6.35,,,,,,,,,206.457,0.755,-0.243,-9.968,-0.052,1202.14,-23.215
6.355,0.0874,0.6831,0.207,-7.9132,-38.5154,6.1625,44.2,86315.0,,,,,,,
6.36,,,,,,,,,206.316,0.718,-0.248,-9.97,-0.05,1204.98,-23.196
6.365,0.1348,0.686,0.2007,3.6415,-44.0476,5.3221,44.2,86359.0,,,,,,,
6.37,,,,,,,,,206.181,0.685,-0.255,-9.973,-0.056,1209.43,-23.158
6.375,0.1089,0.6865,0.1846,-0.5602,-42.437,3.7115,44.2,86299.0,,,,,,,
6.38,,,,,,,,,206.045,0.648,-0.259,-9.975,-0.051,1211.42,-23.12
6.385,0.1006,0.687,0.1924,1.0504,-32.6331,0.9104,44.2,86249.0,,,,,,,
6.39,,,,,,,,,205.904,0.612,-0.263,-9.977,-0.05,1211.61,-23.111
6.395,0.123,0.6807,0.1685,4.2717,-24.1597,-1.6106,44.2,86207.0,,,,,,,
6.4,,,,,,,,,205.765,0.584,-0.264,-9.979,-0.048,1214.83,-23.111
6.405,0.1323,0.6787,0.0986,-0.9104,-17.9972,-4.2017,44.2,86185.0,,,,,,,
6.41,,,,,,,,,205.62,0.564,-0.262,-9.98,-0.043,1215.02,-23.101
6.415,0.0977,0.6714,0.0474,2.2409,-11.9748,-6.6527,44.2,86141.0,,,,,,,
6.42,,,,,,,,,205.48,0.549,-0.259,-9.981,-0.044,1219.19,-23.082
6.425,0.0889,0.668,0.0186,2.9412,-4.0616,-8.3333,44.2,86120.0,,,,,,,
6.43,,,,,,,,,205.339,0.54,-0.253,-9.982,-0.042,1220.71,-23.073
6.435,0.0371,0.6743,0.0352,0.1401,1.6106,-9.8739,44.2,86122.0,,,,,,,
6.44,,,,,,,,,205.204,0.537,-0.246,-9.982,-0.039,1225.45,-23.045
6.445,-0.0225,0.6699,0.0571,0.9104,4.8319,-10.6443,44.2,86095.0,,,,,,,
6.45,,,,,,,,,205.075,0.54,-0.237,-9.982,-0.039,1229.43,-22.997
6.455,-0.0342,0.6655,0.0396,-1.1204,7.7731,-10.9944,44.2,86057.0,,,,,,,
6.46,,,,,,,,,204.946,0.545,-0.228,-9.982,-0.039,1231.52,-22.959
6.465,-0.0601,0.6631,0.0483,-9.1737,16.7367,-11.7647,44.2,86056.0,,,,,,,
6.47,,,,,,,,,204.823,0.552,-0.218,-9.982,-0.04,1235.69,-22.874
6.475,-0.105,0.6641,0.0537,-1.0504,20.4482,-10.5042,44.2,86009.0,,,,,,,
6.48,,,,,,,,,204.698,0.568,-0.209,-9.981,-0.048,1237.5,-22.817
6.485,-0.1182,0.667,0.0317,-8.3333,27.1008,-8.5434,44.2,85966.0,,,,,,,
6.49,,,,,,,,,204.568,0.586,-0.2,-9.98,-0.05,1237.69,-22.789
6.495,-0.2012,0.6626,0.0366,-5.3221,27.381,-7.0728,44.2,85939.0,,,,,,,
6.5,,,,,,,,,204.439,0.611,-0.193,-9.979,-0.058,1240.06,-22.751
6.505,-0.2266,0.6587,0.0762,-8.1933,31.3025,-5.8123,44.2,85926.0,,,,,,,
6.51,,,,,,,,,204.313,0.635,-0.187,-9.977,-0.063,1243.67,-22.732
6.515,-0.1519,0.6621,0.1069,-9.5238,35.5042,-4.1317,44.2,85873.0,,,,,,,
6.52,,,,,,,,,204.181,0.663,-0.182,-9.976,-0.071,1243.77,-22.704
6.525,-0.1641,0.6558,0.0889,-6.3725,37.535,-2.6611,44.2,85853.0,,,,,,,
6.53,,,,,,,,,204.056,0.695,-0.179,-9.973,-0.079,1248.23,-22.676
6.535,-0.1943,0.6675,0.1543,-11.9048,40.1261,-0.4902,44.2,85863.0,,,,,,,
6.54,,,,,,,,,203.936,0.728,-0.177,-9.971,-0.085,1252.32,-22.657
6.545,-0.1235,0.6631,0.2192,-3.7115,39.986,0.7003,44.2,85839.0,,,,,,,
6.55,,,,,,,,,203.817,0.764,-0.177,-9.968,-0.096,1254.89,-22.657
6.555,-0.1611,0.6689,0.1768,-3.5714,41.8067,2.3109,44.2,85816.0,,,,,,,
6.56,,,,,,,,,203.694,0.8,-0.177,-9.965,-0.099,1256.12,-22.657
6.565,-0.186,0.665,0.1724,-7.0728,49.5098,3.2913,44.2,85790.0,,,,,,,
6.57,,,,,,,,,203.579,0.837,-0.179,-9.962,-0.103,1261.17,-22.657
6.575,-0.1499,0.6704,0.1919,-6.7227,53.5014,5.112,44.2,85757.0,,,,,,,
6.58,,,,,,,,,203.461,0.881,-0.182,-9.958,-0.109,1262.12,-22.657
6.585,-0.1465,0.666,0.1963,-3.9916,55.6022,6.1625,44.2,85740.0,,,,,,,
6.59,,,,,,,,,203.338,0.928,-0.187,-9.954,-0.115,1263.07,-22.657
6.595,-0.1455,0.6602,0.1992,-3.6415,59.944,6.7227,44.2,85738.0,,,,,,,
6.6,,,,,,,,,203.212,0.977,-0.192,-9.949,-0.119,1264.4,-22.694
6.605,-0.1221,0.665,0.1772,-1.3305,64.1457,7.2129,44.2,85720.0,,,,,,,
6.61,,,,,,,,,203.086,1.03,-0.197,-9.944,-0.122,1266.59,-22.694
6.615,-0.1445,0.6543,0.1753,2.6611,66.9468,7.9132,44.2,85690.0,,,,,,,
6.62,,,,,,,,,202.96,1.087,-0.203,-9.937,-0.123,1269.07,-22.694
6.625,-0.0806,0.6553,0.1582,-5.3221,70.098,8.7535,44.2,85670.0,,,,,,,
6.63,,,,,,,,,202.837,1.146,-0.209,-9.931,-0.121,1272.21,-22.694
6.635,-0.0288,0.6519,0.1572,-3.9216,74.7199,8.8936,44.2,85660.0,,,,,,,
6.64,,,,,,,,,202.711,1.208,-0.217,-9.923,-0.126,1273.83,-22.694
6.645,-0.0366,0.6499,0.1504,-2.8011,78.6415,8.7535,44.2,85629.0,,,,,,,
6.65,,,,,,,,,202.58,1.273,-0.224,-9.915,-0.129,1274.02,-22.694
6.655,-0.0244,0.645,0.1538,-2.8711,77.2409,8.3333,44.2,85602.0,,,,,,,
6.66,,,,,,,,,202.448,1.342,-0.231,-9.905,-0.132,1275.74,-22.6
6.665,0.0356,0.6411,0.1484,-3.3613,84.5238,7.2129,44.2,85593.0,,,,,,,
6.67,,,,,,,,,202.318,1.41,-0.238,-9.896,-0.135,1278.6,-22.505
6.675,0.0342,0.6343,0.1318,-0.6303,85.8543,5.8123,44.2,85553.0,,,,,,,
6.68,,,,,,,,,202.188,1.484,-0.243,-9.885,-0.138,1280.5,-22.486
6.685,0.0278,0.6401,0.1274,-1.1905,90.1961,5.042,44.2,85525.0,,,,,,,
6.69,,,,,,,,,202.054,1.559,-0.247,-9.873,-0.139,1281.46,-22.439
6.695,0.0522,0.6318,0.1299,-2.3109,88.7955,3.8515,44.2,85501.0,,,,,,,
6.7,,,,,,,,,201.923,1.637,-0.251,-9.86,-0.141,1284.41,-22.401
6.705,0.0879,0.6323,0.1367,4.5518,92.2969,1.3305,44.2,85465.0,,,,,,,
6.71,,,,,,,,,201.793,1.714,-0.253,-9.847,-0.144,1286.99,-22.307
6.715,0.0996,0.6362,0.1289,1.8908,95.9384,-0.07,44.2,85492.0,,,,,,,
6.72,,,,,,,,,201.66,1.795,-0.253,-9.833,-0.142,1287.85,-22.231
6.725,0.0552,0.6255,0.1206,1.6807,100.7703,-1.4706,44.2,85452.0,,,,,,,
6.73,,,,,,,,,201.532,1.878,-0.251,-9.817,-0.142,1291.67,-22.212
6.735,0.0586,0.6309,0.1021,-4.5518,102.591,-2.7311,44.2,85411.0,,,,,,,
6.74,,,,,,,,,201.405,1.965,-0.248,-9.8,-0.143,1294.34,-22.136
6.745,0.0703,0.6265,0.1274,4.8319,103.2913,-4.4118,44.2,85396.0,,,,,,,
6.75,,,,,,,,,201.279,2.053,-0.246,-9.782,-0.149,1296.63,-22.099
6.755,0.0132,0.6265,0.1094,2.8711,105.6022,-5.8123,44.2,85383.0,,,,,,,
6.76,,,,,,,,,201.15,2.142,-0.24,-9.763,-0.148,1297.49,-22.061
6.765,0.0283,0.6279,0.0938,1.2605,108.8235,-7.0028,44.2,85344.0,,,,,,,
6.77,,,,,,,,,201.021,2.233,-0.233,-9.743,-0.148,1300.07,-22.051
6.775,0.0088,0.6245,0.0825,5.8123,108.3333,-7.9132,44.2,85338.0,,,,,,,
6.78,,,,,,,,,200.89,2.326,-0.225,-9.721,-0.151,1301.31,-22.032
6.785,-0.0454,0.6235,0.0674,2.9412,109.4538,-7.9132,44.2,85288.0,,,,,,,
6.79,,,,,,,,,200.764,2.419,-0.216,-9.699,-0.149,1305.23,-21.976
6.795,-0.022,0.6191,0.0908,-7.2829,115.1961,-8.1933,44.2,85287.0,,,,,,,
6.8,,,,,,,,,200.636,2.512,-0.207,-9.675,-0.15,1306.67,-21.947
6.805,-0.0542,0.6187,0.1108,-2.2409,115.6162,-8.0532,44.2,85294.0,,,,,,,
6.81,,,,,,,,,200.505,2.61,-0.2,-9.649,-0.16,1307.91,-21.947
6.815,-0.1025,0.625,0.0762,-6.3025,114.2857,-7.563,44.2,85247.0,,,,,,,
6.82,,,,,,,,,200.378,2.708,-0.192,-9.622,-0.165,1311.64,-21.928
6.825,-0.0757,0.6211,0.1289,-3.8515,112.535,-6.6527,44.2,85226.0,,,,,,,
6.83,,,,,,,,,200.247,2.805,-0.186,-9.595,-0.174,1312.21,-21.919
6.835,-0.1191,0.6299,0.1274,-3.0112,109.944,-5.8824,44.2,85240.0,,,,,,,
6.84,,,,,,,,,200.121,2.899,-0.179,-9.566,-0.18,1316.42,-21.909
6.845,-0.1064,0.6226,0.103,-3.4314,112.395,-5.2521,44.2,85199.0,,,,,,,
6.85,,,,,,,,,199.991,2.992,-0.174,-9.538,-0.185,1317.0,-21.909
6.855,-0.1113,0.6196,0.1367,-7.423,118.1373,-4.2717,44.2,85155.0,,,,,,,
6.86,,,,,,,,,199.855,3.086,-0.168,-9.508,-0.191,1317.09,-21.89
6.865,-0.1074,0.6143,0.1675,-9.1737,118.1373,-3.4314,44.2,85130.0,,,,,,,
6.87,,,,,,,,,199.723,3.184,-0.165,-9.475,-0.2,1320.92,-21.871
6.875,-0.1157,0.6182,0.1128,-7.3529,117.0868,-2.2409,44.2,85120.0,,,,,,,
6.88,,,,,,,,,199.587,3.282,-0.162,-9.441,-0.21,1321.59,-21.843
6.885,-0.1348,0.6157,0.1001,-9.1737,117.2269,-1.0504,44.2,85092.0,,,,,,,
6.89,,,,,,,,,199.449,3.379,-0.16,-9.407,-0.218,1322.93,-21.815
6.895,-0.1128,0.6113,0.1655,-8.0532,114.8459,0.2801,44.2,85072.0,,,,,,,
6.9,,,,,,,,,199.312,3.476,-0.16,-9.372,-0.227,1325.52,-21.815
6.905,-0.0923,0.6138,0.1743,-7.2129,115.6863,0.9804,44.2,85069.0,,,,,,,
6.91,,,,,,,,,199.181,3.571,-0.16,-9.336,-0.235,1329.73,-21.815
6.915,-0.1255,0.6133,0.1162,-10.084,115.8964,1.7507,44.2,85033.0,,,,,,,
6.92,,,,,,,,,199.051,3.666,-0.161,-9.299,-0.241,1332.13,-21.786
6.925,-0.0928,0.604,0.1104,-6.5826,116.5266,2.0308,44.2,85037.0,,,,,,,
6.93,,,,,,,,,198.917,3.76,-0.163,-9.261,-0.25,1333.09,-21.739
6.935,-0.103,0.606,0.1533,-6.1625,115.1961,3.5714,44.2,85026.0,,,,,,,
6.94,,,,,,,,,198.785,3.855,-0.164,-9.221,-0.256,1335.77,-21.711
6.945,-0.0942,0.6016,0.1465,-9.1036,117.7871,4.0616,44.2,84993.0,,,,,,,
6.95,,,,,,,,,198.652,3.948,-0.167,-9.182,-0.261,1337.69,-21.701
6.955,-0.0547,0.606,0.125,-7.563,114.2857,4.4818,44.2,84993.0,,,,,,,
6.96,,,,,,,,,198.514,4.043,-0.17,-9.14,-0.269,1337.97,-21.692
6.965,-0.0581,0.6025,0.1279,-2.521,113.2353,4.6218,44.2,84949.0,,,,,,,
6.97,,,,,,,,,198.379,4.135,-0.174,-9.099,-0.274,1341.04,-21.654
6.975,-0.0405,0.6035,0.165,-2.1008,115.4762,4.7619,44.2,84887.0,,,,,,,
6.98,,,,,,,,,198.239,4.225,-0.175,-9.057,-0.276,1341.43,-21.55
6.985,-0.0127,0.5981,0.1475,-4.8319,115.8964,4.5518,44.2,84894.0,,,,,,,
6.99,,,,,,,,,198.095,4.317,-0.177,-9.013,-0.278,1342.1,-21.55
6.995,-0.0479,0.5981,0.1055,-2.8711,117.0168,4.1317,44.2,84879.0,,,,,,,
7.0,,,,,,,,,197.955,4.409,-0.18,-8.969,-0.281,1345.27,-21.512
7.005,-0.0205,0.5977,0.1621,-2.451,118.2073,3.7815,44.2,84832.0,,,,,,,
7.01,,,,,,,,,197.808,4.501,-0.181,-8.923,-0.283,1345.27,-21.503
7.015,0.0293,0.5942,0.1865,-4.4118,121.7787,3.4314,44.2,84785.0,,,,,,,
7.02,,,,,,,,,197.668,4.594,-0.182,-8.875,-0.285,1349.49,-21.484
7.025,-0.0273,0.5933,0.1152,0.0,120.1681,3.3613,44.2,84789.0,,,,,,,
7.03,,,,,,,,,197.536,4.689,-0.183,-8.825,-0.289,1354.77,-21.465
7.035,0.0146,0.5938,0.1421,-0.3501,119.5378,2.591,44.2,84793.0,,,,,,,
7.04,,,,,,,,,197.4,4.782,-0.183,-8.775,-0.289,1355.45,-21.398
7.045,0.0532,0.5884,0.1812,-3.9216,124.5798,1.7507,44.2,84763.0,,,,,,,
7.05,,,,,,,,,197.261,4.874,-0.182,-8.724,-0.29,1356.21,-21.398
7.055,-0.0029,0.5923,0.1313,1.9608,124.3697,0.3501,44.2,84748.0,,,,,,,
7.06,,,,,,,,,197.128,4.969,-0.181,-8.67,-0.294,1360.73,-21.389
7.065,0.0039,0.5854,0.0962,-5.042,126.1905,-0.1401,44.2,84738.0,,,,,,,
7.07,,,,,,,,,197.001,5.064,-0.177,-8.615,-0.294,1364.48,-21.323
7.075,0.0474,0.5879,0.1455,-2.8711,125.9804,-1.0504,44.2,84696.0,,,,,,,
7.08,,,,,,,,,196.868,5.159,-0.176,-8.558,-0.299,1364.86,-21.313
7.085,0.0181,0.5806,0.1519,-3.8515,128.9916,-1.7507,44.2,84675.0,,,,,,,
7.09,,,,,,,,,196.73,5.254,-0.173,-8.501,-0.303,1365.25,-21.304
7.095,0.0366,0.5815,0.1035,-4.2017,129.1317,-2.8711,44.2,84632.0,,,,,,,
7.1,,,,,,,,,196.593,5.35,-0.17,-8.441,-0.309,1367.36,-21.285
7.105,0.0288,0.5898,0.1118,-6.1625,132.493,-3.8515,44.2,84623.0,,,,,,,
7.11,,,,,,,,,196.454,5.445,-0.166,-8.379,-0.315,1368.8,-21.209
7.115,-0.0156,0.5757,0.1152,-1.5406,128.8515,-4.5518,44.2,84605.0,,,,,,,
7.12,,,,,,,,,196.311,5.542,-0.163,-8.315,-0.323,1369.77,-21.209
7.125,-0.0127,0.5752,0.1064,1.0504,128.9916,-5.2521,44.2,84564.0,,,,,,,
7.13,,,,,,,,,196.174,5.636,-0.156,-8.252,-0.327,1373.81,-21.2
7.135,-0.0244,0.582,0.1055,-6.6527,131.8627,-5.6723,44.2,84536.0,,,,,,,
7.14,,,,,,,,,196.037,5.729,-0.148,-8.187,-0.331,1375.83,-21.153
7.145,-0.0728,0.5796,0.1123,-9.7339,131.5826,-5.3221,44.2,84533.0,,,,,,,
7.15,,,,,,,,,195.907,5.823,-0.144,-8.12,-0.34,1379.97,-21.086
7.155,-0.0454,0.5742,0.0854,2.7311,128.0112,-5.4622,44.2,84493.0,,,,,,,
7.16,,,,,,,,,195.772,5.917,-0.141,-8.052,-0.351,1380.84,-21.077
7.165,-0.0786,0.5713,0.1079,1.6807,129.1317,-5.042,44.2,84505.0,,,,,,,
7.17,,,,,,,,,195.637,6.007,-0.131,-7.985,-0.353,1382.57,-21.058
7.175,-0.0635,0.5669,0.0942,0.4902,129.2017,-4.7619,44.2,84460.0,,,,,,,
7.18,,,,,,,,,195.507,6.097,-0.123,-7.917,-0.355,1386.52,-21.039
7.185,-0.0723,0.5718,0.061,-0.1401,128.0112,-4.2717,44.2,84420.0,,,,,,,
7.19,,,,,,,,,195.379,6.186,-0.115,-7.847,-0.359,1389.22,-20.963
7.195,-0.0781,0.5752,0.0957,-3.2913,129.1317,-3.8515,44.2,84411.0,,,,,,,
7.2,,,,,,,,,195.246,6.274,-0.108,-7.777,-0.362,1389.51,-20.954
7.205,-0.0713,0.5708,0.1152,-2.7311,130.4622,-3.2213,44.2,84354.0,,,,,,,
7.21,,,,,,,,,195.114,6.362,-0.103,-7.705,-0.367,1392.21,-20.954
7.215,-0.0869,0.5581,0.0669,0.7003,127.381,-2.6611,44.2,84388.0,,,,,,,
7.22,,,,,,,,,194.98,6.45,-0.098,-7.631,-0.372,1393.37,-20.935
7.225,-0.0815,0.5591,0.0801,-2.0308,129.0616,-1.8207,44.2,84354.0,,,,,,,
7.23,,,,,,,,,194.849,6.535,-0.092,-7.559,-0.373,1396.55,-20.888
7.235,-0.0786,0.5684,0.1206,-2.7311,127.1008,-1.4006,44.2,84316.0,,,,,,,
7.24,,,,,,,,,194.723,6.62,-0.087,-7.484,-0.377,1400.41,-20.878
7.245,-0.1001,0.5576,0.0947,-3.9916,126.2605,-0.7703,44.2,84331.0,,,,,,,
7.25,,,,,,,,,194.593,6.703,-0.084,-7.409,-0.38,1401.27,-20.869
7.255,-0.0635,0.5566,0.0737,-3.1513,127.451,-0.2801,44.2,84270.0,,,,,,,
7.26,,,,,,,,,194.464,6.785,-0.081,-7.334,-0.383,1403.5,-20.821
7.265,-0.0713,0.5684,0.123,-1.4706,127.381,0.07,44.2,84272.0,,,,,,,
7.27,,,,,,,,,194.339,6.867,-0.078,-7.258,-0.386,1406.78,-20.793
7.275,-0.0884,0.5576,0.1431,1.8908,124.2297,0.3501,44.2,84251.0,,,,,,,
7.28,,,,,,,,,194.207,6.948,-0.075,-7.18,-0.388,1406.78,-20.821
7.285,-0.0469,0.5586,0.103,-4.5518,128.7815,0.7703,44.2,84215.0,,,,,,,
7.29,,,,,,,,,194.077,7.026,-0.069,-7.104,-0.387,1409.0,-20.642
7.295,-0.0601,0.5547,0.1313,-6.0924,128.9216,1.2605,44.2,84173.0,,,,,,,
7.3,,,,,,,,,193.945,7.106,-0.068,-7.024,-0.39,1410.45,-20.632
7.305,-0.062,0.5576,0.1445,-10.3641,131.2325,1.4006,44.2,84192.0,,,,,,,
7.31,,,,,,,,,193.819,7.185,-0.068,-6.943,-0.393,1414.7,-20.623
7.315,-0.0464,0.5542,0.1172,-8.8936,132.7031,1.9608,44.2,84192.0,,,,,,,
7.32,,,,,,,,,193.688,7.265,-0.071,-6.859,-0.399,1414.89,-20.613
7.325,-0.0322,0.5498,0.1382,-9.8039,133.6134,1.3305,44.2,84139.0,,,,,,,
7.33,,,,,,,,,193.556,7.344,-0.073,-6.773,-0.403,1416.73,-20.613
7.335,-0.0469,0.5513,0.1562,-0.5602,129.972,1.2605,44.2,84136.0,,,,,,,
7.34,,,,,,,,,193.428,7.423,-0.075,-6.686,-0.409,1420.21,-20.613
7.345,-0.0527,0.5522,0.1299,-5.6723,134.0336,1.4006,44.2,84113.0,,,,,,,
7.35,,,,,,,,,193.3,7.499,-0.071,-6.601,-0.409,1422.43,-20.594
7.355,-0.0293,0.5503,0.1367,-4.6218,136.4846,1.1204,44.2,84092.0,,,,,,,
7.36,,,,,,,,,193.166,7.577,-0.071,-6.512,-0.412,1422.43,-20.557
7.365,-0.062,0.5532,0.166,-2.3109,135.7843,0.7003,44.2,84076.0,,,,,,,
7.37,,,,,,,,,193.032,7.654,-0.069,-6.421,-0.414,1424.27,-20.547
7.375,-0.0605,0.5493,0.1782,-3.5714,139.916,0.8403,44.2,84073.0,,,,,,,
7.38,,,,,,,,,192.901,7.73,-0.066,-6.329,-0.416,1427.56,-20.528
7.385,-0.0039,0.5518,0.1367,-3.4314,139.4258,0.5602,44.2,84029.0,,,,,,,
7.39,,,,,,,,,192.765,7.808,-0.063,-6.233,-0.417,1427.85,-20.509
7.395,-0.0562,0.5444,0.1455,-4.3417,139.916,0.4902,44.2,83984.0,,,,,,,
7.4,,,,,,,,,192.63,7.883,-0.061,-6.137,-0.419,1430.07,-20.5
7.405,-0.0713,0.5498,0.1709,-4.902,138.5854,0.7703,44.2,83991.0,,,,,,,
7.41,,,,,,,,,192.494,7.958,-0.059,-6.039,-0.422,1432.11,-20.49
7.415,-0.0249,0.5425,0.1479,-2.381,142.3669,0.4202,44.2,83971.0,,,,,,,
7.42,,,,,,,,,192.357,8.031,-0.057,-5.942,-0.424,1433.66,-20.471
7.425,-0.0713,0.5518,0.1357,-5.112,143.2073,0.8403,44.2,83946.0,,,,,,,
7.43,,,,,,,,,192.215,8.105,-0.053,-5.841,-0.426,1433.95,-20.471
7.435,-0.0518,0.5493,0.1758,1.6106,143.0672,0.8403,44.2,83941.0,,,,,,,
7.44,,,,,,,,,192.079,8.178,-0.052,-5.738,-0.428,1438.21,-20.471
7.445,-0.0176,0.5449,0.1709,-0.8403,143.7675,0.8403,44.2,83901.0,,,,,,,
7.45,,,,,,,,,191.948,8.249,-0.046,-5.635,-0.427,1441.89,-20.462
7.455,-0.0557,0.5435,0.1455,-6.5126,143.3473,0.7703,44.2,83860.0,,,,,,,
7.46,,,,,,,,,191.812,8.32,-0.041,-5.53,-0.427,1442.57,-20.452
7.465,-0.0513,0.5435,0.1592,-0.3501,143.2773,0.7703,44.2,83837.0,,,,,,,
7.47,,,,,,,,,191.674,8.389,-0.041,-5.425,-0.43,1443.83,-20.452
7.475,0.0078,0.5332,0.1528,4.8319,142.507,1.0504,44.2,83838.0,,,,,,,
7.48,,,,,,,,,191.538,8.457,-0.035,-5.319,-0.43,1446.25,-20.367
7.485,-0.0371,0.541,0.1191,4.7619,141.0364,1.1204,44.2,83839.0,,,,,,,
7.49,,,,,,,,,191.398,8.523,-0.027,-5.212,-0.427,1446.73,-20.358
7.495,-0.0283,0.5352,0.1372,6.5826,142.0868,0.5602,44.1,83772.0,,,,,,,
7.5,,,,,,,,,191.263,8.587,-0.018,-5.107,-0.424,1450.61,-20.339
7.505,-0.001,0.5273,0.123,1.6807,142.507,0.5602,44.2,83786.0,,,,,,,
7.51,,,,,,,,,191.133,8.65,-0.008,-4.999,-0.42,1454.59,-20.339
7.515,-0.0444,0.5283,0.0552,1.3305,140.2661,0.4902,44.2,83738.0,,,,,,,
7.52,,,,,,,,,191.002,8.712,-0.002,-4.891,-0.419,1456.63,-20.339
7.525,-0.0283,0.5259,0.0659,-3.1513,143.5574,0.4202,44.2,83732.0,,,,,,,
7.53,,,,,,,,,190.867,8.771,0.004,-4.783,-0.418,1456.73,-20.292
7.535,-0.0127,0.5308,0.0698,-3.7815,142.9972,0.5602,44.2,83695.0,,,,,,,
7.54,,,,,,,,,190.727,8.831,0.007,-4.672,-0.419,1456.82,-20.178
7.545,-0.001,0.521,0.0752,-0.8403,142.7871,0.1401,44.2,83675.0,,,,,,,
7.55,,,,,,,,,190.596,8.889,0.009,-4.56,-0.419,1461.77,-20.14
7.555,0.0059,0.5225,0.0718,0.6303,142.3669,-0.1401,44.2,83638.0,,,,,,,
7.56,,,,,,,,,190.463,8.946,0.014,-4.448,-0.419,1463.13,-20.093
7.565,0.0298,0.5259,0.1201,-1.6106,142.507,-0.6303,44.1,83663.0,,,,,,,
7.57,,,,,,,,,190.333,9.0,0.02,-4.336,-0.419,1466.43,-20.046
7.575,0.0371,0.5249,0.1182,-3.7815,142.2269,-1.5406,44.1,83614.0,,,,,,,
7.58,,,,,,,,,190.2,9.054,0.024,-4.223,-0.419,1467.01,-20.027
7.585,0.041,0.5229,0.1221,-0.4902,142.0868,-2.451,44.1,83577.0,,,,,,,
7.59,,,,,,,,,190.071,9.106,0.027,-4.109,-0.421,1470.61,-19.998
7.595,0.0205,0.5239,0.1426,2.1709,143.0672,-3.6415,44.2,83597.0,,,,,,,
7.6,,,,,,,,,189.942,9.157,0.033,-3.995,-0.423,1472.55,-19.998
7.605,0.0103,0.521,0.1343,-3.0112,143.5574,-4.4818,44.1,83530.0,,,,,,,
7.61,,,,,,,,,189.811,9.206,0.042,-3.88,-0.424,1473.72,-19.979
7.615,0.0049,0.5127,0.0957,-2.6611,145.6583,-4.8319,44.2,83547.0,,,,,,,
7.62,,,,,,,,,189.68,9.254,0.047,-3.764,-0.428,1476.15,-19.961
7.625,-0.0239,0.5244,0.1011,-4.7619,145.9384,-5.1821,44.1,83524.0,,,,,,,
7.63,,,,,,,,,189.551,9.301,0.052,-3.645,-0.432,1478.48,-19.942
7.635,-0.0464,0.5166,0.1411,0.4902,142.0868,-5.1821,44.1,83475.0,,,,,,,
7.64,,,,,,,,,189.42,9.347,0.055,-3.525,-0.437,1480.14,-19.942
7.645,-0.0063,0.5166,0.1274,2.8011,141.8067,-5.4622,44.2,83487.0,,,,,,,
7.65,,,,,,,,,189.289,9.39,0.063,-3.408,-0.44,1482.08,-19.942
7.655,-0.0723,0.5166,0.1001,1.4706,143.2073,-5.5322,44.2,83452.0,,,,,,,
7.66,,,,,,,,,189.16,9.432,0.073,-3.291,-0.443,1485.0,-19.942
7.665,-0.0864,0.52,0.1157,1.8908,143.4174,-5.042,44.1,83457.0,,,,,,,
7.67,,,,,,,,,189.03,9.472,0.082,-3.172,-0.445,1486.66,-19.904
7.675,-0.0337,0.522,0.1582,-0.9104,143.2773,-4.4118,44.1,83448.0,,,,,,,
7.68,,,,,,,,,188.897,9.511,0.09,-3.052,-0.448,1487.24,-19.885
7.685,-0.1074,0.5171,0.1055,-3.6415,144.958,-3.7115,44.1,83389.0,,,,,,,
7.69,,,,,,,,,188.767,9.549,0.097,-2.932,-0.45,1490.84,-19.885
7.695,-0.0928,0.5181,0.0742,-3.1513,143.2073,-2.9412,44.1,83386.0,,,,,,,
7.7,,,,,,,,,188.636,9.585,0.101,-2.81,-0.453,1492.01,-19.828
7.705,-0.0874,0.502,0.1357,0.9804,141.3165,-2.381,44.1,83388.0,,,,,,,
7.71,,,,,,,,,188.504,9.62,0.105,-2.689,-0.455,1493.76,-19.828
7.715,-0.1035,0.52,0.1143,-1.4006,141.5966,-1.3305,44.2,83346.0,,,,,,,
7.72,,,,,,,,,188.367,9.652,0.112,-2.57,-0.455,1494.25,-19.828
7.725,-0.1084,0.5063,0.0791,-5.042,141.3165,-0.4202,44.1,83309.0,,,,,,,
7.73,,,,,,,,,188.226,9.683,0.117,-2.449,-0.455,1494.64,-19.828
7.735,-0.1064,0.5059,0.0845,-1.8207,140.7563,0.1401,44.1,83312.0,,,,,,,
7.74,,,,,,,,,188.095,9.713,0.119,-2.329,-0.455,1500.39,-19.828
7.745,-0.1118,0.5029,0.0981,1.5406,139.4258,1.4706,44.1,83268.0,,,,,,,
7.75,,,,,,,,,187.959,9.741,0.123,-2.208,-0.453,1500.48,-19.828
7.755,-0.0698,0.5029,0.0742,-1.0504,137.7451,2.591,44.1,83264.0,,,,,,,
7.76,,,,,,,,,187.817,9.768,0.13,-2.089,-0.45,1500.68,-19.828
7.765,-0.0381,0.502,0.0732,-2.8711,136.6947,3.3613,44.1,83242.0,,,,,,,
7.77,,,,,,,,,187.683,9.792,0.134,-1.97,-0.446,1504.58,-19.62
7.775,-0.0488,0.4927,0.0928,-2.381,136.6246,3.7815,44.1,83214.0,,,,,,,
7.78,,,,,,,,,187.553,9.815,0.137,-1.853,-0.442,1507.9,-19.611
7.785,-0.022,0.5005,0.0664,-3.6415,136.9048,3.9216,44.2,83208.0,,,,,,,
7.79,,,,,,,,,187.418,9.837,0.14,-1.734,-0.437,1508.19,-19.554
7.795,-0.0054,0.4922,0.0327,0.0,136.6246,3.2213,44.1,83160.0,,,,,,,
7.8,,,,,,,,,187.288,9.857,0.142,-1.616,-0.432,1512.19,-19.554
7.805,0.001,0.4893,0.0396,1.6106,134.5238,2.9412,44.1,83128.0,,,,,,,
7.81,,,,,,,,,187.154,9.876,0.147,-1.497,-0.428,1512.58,-19.554
7.815,-0.0024,0.4956,0.0732,-1.8207,135.7843,2.451,44.1,83128.0,,,,,,,
7.82,,,,,,,,,187.02,9.893,0.153,-1.381,-0.423,1514.72,-19.535
7.825,0.0312,0.4883,0.0723,-4.4118,136.8347,1.9608,44.1,83089.0,,,,,,,
7.83,,,,,,,,,186.889,9.909,0.157,-1.262,-0.419,1517.46,-19.506
7.835,0.0137,0.4902,0.0435,-7.7031,137.395,1.4706,44.1,83072.0,,,,,,,
7.84,,,,,,,,,186.754,9.924,0.158,-1.143,-0.416,1518.04,-19.412
7.845,0.0229,0.4863,0.0786,-3.9916,135.2941,0.5602,44.1,83043.0,,,,,,,
7.85,,,,,,,,,186.628,9.937,0.157,-1.023,-0.413,1522.73,-19.355
7.855,0.0137,0.4858,0.1006,-8.7535,136.4146,-1.1905,44.1,83051.0,,,,,,,
7.86,,,,,,,,,186.504,9.949,0.158,-0.905,-0.411,1525.86,-19.346
7.865,0.0195,0.4912,0.0928,-6.5126,134.5238,-2.1008,44.1,83016.0,,,,,,,
7.87,,,,,,,,,186.375,9.959,0.156,-0.785,-0.411,1525.86,-19.308
7.875,0.0112,0.4883,0.1235,-9.7339,138.3754,-2.451,44.1,82999.0,,,,,,,
7.88,,,,,,,,,186.252,9.967,0.156,-0.667,-0.411,1529.67,-19.308
7.885,0.0068,0.4922,0.1294,-5.8824,136.2745,-3.4314,44.1,82964.0,,,,,,,
7.89,,,,,,,,,186.127,9.975,0.153,-0.545,-0.412,1531.33,-19.289
7.895,-0.0073,0.4902,0.126,-3.7815,137.1148,-4.3417,44.1,82971.0,,,,,,,
7.9,,,,,,,,,186.002,9.981,0.153,-0.425,-0.413,1533.38,-19.289
7.905,0.0127,0.4863,0.1406,-5.9524,135.2241,-4.8319,44.1,82954.0,,,,,,,
7.91,,,,,,,,,185.873,9.985,0.155,-0.305,-0.415,1534.17,-19.308
7.915,-0.0156,0.48,0.1348,-5.042,135.4342,-4.972,44.1,82919.0,,,,,,,
7.92,,,,,,,,,185.747,9.988,0.155,-0.186,-0.417,1536.81,-19.27
7.925,-0.0259,0.4863,0.1489,-3.3613,135.5042,-5.3221,44.1,82942.0,,,,,,,
7.93,,,,,,,,,185.619,9.989,0.156,-0.067,-0.42,1538.47,-19.27
7.935,-0.0459,0.4907,0.1606,-3.2913,134.3137,-5.1821,44.1,82901.0,,,,,,,
7.94,,,,,,,,,185.494,9.989,0.159,0.051,-0.422,1541.21,-19.232
7.945,-0.0312,0.4844,0.147,-2.3109,135.5042,-5.1821,44.1,82861.0,,,,,,,
7.95,,,,,,,,,185.365,9.988,0.161,0.17,-0.425,1541.9,-19.27
7.955,-0.0469,0.4888,0.1411,-3.5714,137.465,-5.3221,44.1,82862.0,,,,,,,
7.96,,,,,,,,,185.233,9.985,0.164,0.289,-0.427,1542.87,-19.27
7.965,-0.0439,0.4814,0.1538,0.8403,135.7143,-5.3922,44.1,82834.0,,,,,,,
7.97,,,,,,,,,185.098,9.98,0.167,0.41,-0.43,1544.05,-19.27
7.975,-0.0771,0.4893,0.145,-0.8403,134.6639,-4.8319,44.1,82807.0,,,,,,,
7.98,,,,,,,,,184.965,9.975,0.173,0.529,-0.432,1546.3,-19.232
7.985,-0.0654,0.4863,0.1333,1.4706,133.7535,-4.4818,44.1,82777.0,,,,,,,
7.99,,,,,,,,,184.831,9.967,0.177,0.647,-0.434,1548.06,-19.232
7.995,-0.0762,0.4834,0.1313,1.8908,135.8543,-4.0616,44.1,82766.0,,,,,,,
8.0,,,,,,,,,184.701,9.959,0.184,0.764,-0.436,1551.88,-19.232
8.005,-0.1152,0.4814,0.1113,0.8403,134.5938,-3.0112,44.1,82738.0,,,,,,,
8.01,,,,,,,,,184.567,9.949,0.191,0.883,-0.437,1551.98,-19.232
8.015,-0.0791,0.4805,0.1025,0.3501,134.7339,-2.521,44.1,82733.0,,,,,,,
8.02,,,,,,,,,184.434,9.938,0.197,1.0,-0.438,1554.63,-19.232
8.025,-0.0669,0.4761,0.0996,0.6303,135.9244,-1.4706,44.1,82718.0,,,,,,,
8.03,,,,,,,,,184.304,9.925,0.202,1.118,-0.438,1557.27,-19.194
8.035,-0.0933,0.4805,0.0908,3.5714,132.0028,-0.4202,44.1,82679.0,,,,,,,
8.04,,,,,,,,,184.176,9.911,0.208,1.237,-0.436,1560.21,-19.175
8.045,-0.0679,0.4731,0.0811,0.8403,133.4734,0.07,44.1,82659.0,,,,,,,
8.05,,,,,,,,,184.046,9.896,0.217,1.351,-0.435,1561.29,-19.138
8.055,-0.0874,0.4761,0.0747,-0.2801,132.7031,0.5602,44.1,82652.0,,,,,,,
8.06,,,,,,,,,183.918,9.879,0.223,1.467,-0.432,1564.04,-19.138
8.065,-0.083,0.4644,0.0679,5.3922,130.7423,1.3305,44.1,82641.0,,,,,,,
8.07,,,,,,,,,183.786,9.861,0.228,1.583,-0.429,1564.53,-19.119
8.075,-0.0586,0.4736,0.0771,3.1513,130.7423,2.1709,44.1,82612.0,,,,,,,
8.08,,,,,,,,,183.652,9.843,0.238,1.696,-0.426,1566.0,-19.119
8.085,-0.0684,0.4731,0.0786,2.8711,127.8711,2.8011,44.1,82596.0,,,,,,,
8.09,,,,,,,,,183.525,9.822,0.246,1.808,-0.422,1569.82,-19.033
8.095,-0.0361,0.4731,0.0815,1.5406,127.451,3.4314,44.1,82556.0,,,,,,,
8.1,,,,,,,,,183.397,9.801,0.254,1.919,-0.417,1571.79,-19.033
8.105,-0.0088,0.4575,0.0542,-3.2913,131.0924,3.3613,44.1,82520.0,,,,,,,
8.11,,,,,,,,,183.266,9.779,0.261,2.028,-0.411,1572.47,-18.986
8.115,-0.0225,0.4624,0.0713,-3.9216,130.112,3.4314,44.1,82522.0,,,,,,,
8.12,,,,,,,,,183.133,9.756,0.264,2.141,-0.405,1573.56,-18.977
8.125,0.0034,0.4565,0.0903,-0.1401,127.451,3.2213,44.1,82488.0,,,,,,,
8.13,,,,,,,,,183.002,9.731,0.266,2.252,-0.398,1576.4,-18.977
8.135,0.0049,0.4609,0.0552,-4.7619,129.4818,2.9412,44.1,82500.0,,,,,,,
8.14,,,,,,,,,182.87,9.705,0.271,2.361,-0.392,1577.97,-18.977
8.145,-0.022,0.4565,0.0684,-1.9608,127.591,2.3109,44.1,82471.0,,,,,,,
8.15,,,,,,,,,182.745,9.678,0.273,2.472,-0.385,1581.9,-18.806
8.155,-0.0015,0.4668,0.106,-0.8403,127.3109,1.8207,44.1,82458.0,,,,,,,
8.16,,,,,,,,,182.624,9.649,0.276,2.58,-0.38,1585.24,-18.769
8.165,-0.0049,0.4648,0.0996,-4.1317,128.7115,1.4706,44.1,82417.0,,,,,,,
8.17,,,,,,,,,182.498,9.62,0.281,2.688,-0.375,1585.44,-18.769
8.175,-0.021,0.4551,0.0688,-2.1008,129.2017,1.0504,44.1,82439.0,,,,,,,
8.18,,,,,,,,,182.372,9.589,0.282,2.797,-0.37,1587.41,-18.769
8.185,0.001,0.4546,0.083,-2.1709,130.4622,0.6303,44.1,82371.0,,,,,,,
8.19,,,,,,,,,182.244,9.557,0.285,2.906,-0.365,1588.59,-18.74
8.195,-0.0034,0.4609,0.125,-4.4118,131.0224,0.2101,44.1,82382.0,,,,,,,
8.2,,,,,,,,,182.116,9.523,0.288,3.015,-0.361,1590.26,-18.674
8.205,-0.0083,0.4604,0.0923,-3.7815,129.4118,-0.6303,44.1,82374.0,,,,,,,
8.21,,,,,,,,,181.985,9.488,0.289,3.125,-0.356,1591.54,-18.74
8.215,0.0049,0.4575,0.1206,-4.6218,131.2325,-0.9804,44.1,82341.0,,,,,,,
8.22,,,,,,,,,181.854,9.451,0.29,3.233,-0.352,1593.4,-18.731
8.225,-0.0049,0.459,0.1421,-2.6611,131.2325,-1.6807,44.1,82323.0,,,,,,,
8.23,,,,,,,,,181.724,9.414,0.29,3.342,-0.348,1595.57,-18.731
8.235,-0.0283,0.4565,0.1191,-4.972,132.9832,-1.6807,44.1,82305.0,,,,,,,
8.24,,,,,,,,,181.598,9.374,0.292,3.45,-0.346,1599.01,-18.702
8.245,-0.0273,0.4604,0.1055,-5.3922,131.7927,-1.8207,44.1,82282.0,,,,,,,
8.25,,,,,,,,,181.468,9.333,0.292,3.56,-0.342,1599.8,-18.702
8.255,-0.0439,0.4551,0.1445,-0.3501,129.8319,-1.8207,44.1,82270.0,,,,,,,
8.26,,,,,,,,,181.334,9.292,0.291,3.668,-0.338,1600.1,-18.702
8.265,-0.0454,0.459,0.1362,0.2801,132.423,-2.0308,44.1,82214.0,,,,,,,
8.27,,,,,,,,,181.203,9.249,0.294,3.774,-0.337,1603.05,-18.674
8.275,-0.0176,0.4541,0.1035,-4.1317,134.4538,-1.6106,44.1,82210.0,,,,,,,
8.28,,,,,,,,,181.072,9.204,0.298,3.881,-0.335,1604.82,-18.702
8.285,-0.0176,0.4517,0.1123,-2.591,131.3725,-1.8207,44.1,82188.0,,,,,,,
8.29,,,,,,,,,180.939,9.158,0.299,3.99,-0.331,1606.6,-18.702
