ts,id,Ax,Ay,Az,Gx,Gy,Gz
-0.755,IMU0,-0.0185546875,-0.4951171875,-0.0361328125,-0.5602240896358543,-1.8907563025210086,-0.5602240896358543
-0.745,IMU0,-0.02099609375,-0.498046875,-0.0380859375,-0.5602240896358543,-1.680672268907563,-0.5602240896358543
-0.735,IMU0,-0.02001953125,-0.49609375,-0.04248046875,-0.4901960784313726,-1.6106442577030813,-0.6302521008403361
-0.725,IMU0,-0.01708984375,-0.49609375,-0.0419921875,-0.4901960784313726,-1.680672268907563,-0.6302521008403361
-0.715,IMU0,-0.015625,-0.49560546875,-0.03515625,-0.4901960784313726,-1.8907563025210086,-0.5602240896358543
-0.705,IMU0,-0.01611328125,-0.49658203125,-0.03076171875,-0.4901960784313726,-1.9607843137254903,-0.6302521008403361
-0.695,IMU0,-0.015625,-0.498046875,-0.03369140625,-0.5602240896358543,-1.9607843137254903,-0.5602240896358543
-0.685,IMU0,-0.015625,-0.49560546875,-0.03662109375,-0.6302521008403361,-2.030812324929972,-0.5602240896358543
-0.675,IMU0,-0.02001953125,-0.49560546875,-0.0390625,-0.6302521008403361,-1.9607843137254903,-0.5602240896358543
-0.665,IMU0,-0.01806640625,-0.4951171875,-0.037109375,-0.5602240896358543,-2.030812324929972,-0.5602240896358543
-0.655,IMU0,-0.01953125,-0.49609375,-0.03466796875,-0.4901960784313726,-1.9607843137254903,-0.5602240896358543
-0.645,IMU0,-0.0166015625,-0.49658203125,-0.03271484375,-0.4901960784313726,-1.9607843137254903,-0.5602240896358543
-0.635,IMU0,-0.015625,-0.49560546875,-0.03515625,-0.5602240896358543,-1.9607843137254903,-0.5602240896358543
-0.625,IMU0,-0.017578125,-0.49560546875,-0.03955078125,-0.6302521008403361,-1.9607843137254903,-0.6302521008403361
-0.615,IMU0,-0.01953125,-0.4951171875,-0.044921875,-0.5602240896358543,-1.8207282913165266,-0.5602240896358543
-0.605,IMU0,-0.017578125,-0.49658203125,-0.03955078125,-0.4901960784313726,-1.7507002801120448,-0.5602240896358543
-0.595,IMU0,-0.017578125,-0.4951171875,-0.03271484375,-0.42016806722689076,-1.7507002801120448,-0.4901960784313726
-0.585,IMU0,-0.01806640625,-0.49560546875,-0.03076171875,-0.42016806722689076,-1.7507002801120448,-0.5602240896358543
-0.575,IMU0,-0.017578125,-0.49462890625,-0.0322265625,-0.42016806722689076,-1.6106442577030813,-0.4901960784313726
-0.565,IMU0,-0.01708984375,-0.4970703125,-0.0380859375,-0.5602240896358543,-1.5406162464985995,-0.5602240896358543
-0.555,IMU0,-0.0185546875,-0.49560546875,-0.0390625,-0.42016806722689076,-1.400560224089636,-0.4901960784313726
-0.545,IMU0,-0.01953125,-0.49462890625,-0.0380859375,-0.5602240896358543,-1.1204481792717087,-0.4901960784313726
-0.535,IMU0,-0.0185546875,-0.49658203125,-0.03076171875,-0.4901960784313726,-0.8403361344537815,-0.5602240896358543
-0.525,IMU0,-0.01708984375,-0.49609375,-0.02734375,-0.4901960784313726,-0.6302521008403361,-0.5602240896358543
-0.515,IMU0,-0.015625,-0.49609375,-0.03173828125,-0.6302521008403361,-0.6302521008403361,-0.5602240896358543
-0.505,IMU0,-0.017578125,-0.49365234375,-0.041015625,-0.6302521008403361,-0.6302521008403361,-0.5602240896358543
-0.495,IMU0,-0.01708984375,-0.49609375,-0.0400390625,-0.4901960784313726,-0.7703081232492998,-0.5602240896358543
-0.485,IMU0,-0.01611328125,-0.4951171875,-0.03515625,-0.5602240896358543,-0.700280112044818,-0.4901960784313726
-0.475,IMU0,-0.01611328125,-0.49658203125,-0.033203125,-0.4901960784313726,-0.7703081232492998,-0.4901960784313726
-0.465,IMU0,-0.0185546875,-0.49560546875,-0.03369140625,-0.6302521008403361,-0.700280112044818,-0.4901960784313726
-0.455,IMU0,-0.0205078125,-0.49658203125,-0.0361328125,-0.6302521008403361,-0.700280112044818,-0.4901960784313726
-0.445,IMU0,-0.0224609375,-0.4951171875,-0.037109375,-0.6302521008403361,-0.6302521008403361,-0.5602240896358543
-0.435,IMU0,-0.01806640625,-0.49609375,-0.03857421875,-0.6302521008403361,-0.4901960784313726,-0.6302521008403361
-0.425,IMU0,-0.0166015625,-0.494140625,-0.03271484375,-0.5602240896358543,-0.42016806722689076,-0.5602240896358543
-0.415,IMU0,-0.0185546875,-0.4951171875,-0.03173828125,-0.5602240896358543,-0.350140056022409,-0.5602240896358543
-0.405,IMU0,-0.01953125,-0.49609375,-0.0341796875,-0.5602240896358543,-0.350140056022409,-0.5602240896358543
-0.395,IMU0,-0.0205078125,-0.49462890625,-0.0380859375,-0.5602240896358543,-0.21008403361344538,-0.4901960784313726
-0.385,IMU0,-0.02197265625,-0.49560546875,-0.04052734375,-0.5602240896358543,0.0700280112044818,-0.4901960784313726
-0.375,IMU0,-0.0205078125,-0.49658203125,-0.0390625,-0.5602240896358543,0.0700280112044818,-0.5602240896358543
-0.365,IMU0,-0.01953125,-0.4970703125,-0.03857421875,-0.42016806722689076,0.0,-0.4901960784313726
-0.355,IMU0,-0.017578125,-0.49658203125,-0.03466796875,-0.42016806722689076,0.0700280112044818,-0.4901960784313726
-0.345,IMU0,-0.0166015625,-0.49560546875,-0.03173828125,-0.4901960784313726,0.0700280112044818,-0.6302521008403361
-0.335,IMU0,-0.01806640625,-0.49560546875,-0.03759765625,-0.5602240896358543,0.0,-0.5602240896358543
-0.325,IMU0,-0.01806640625,-0.4970703125,-0.0390625,-0.4901960784313726,-0.1400560224089636,-0.5602240896358543
-0.315,IMU0,-0.02001953125,-0.49560546875,-0.03662109375,-0.5602240896358543,-0.2801120448179272,-0.4901960784313726
-0.305,IMU0,-0.02197265625,-0.49462890625,-0.03564453125,-0.4901960784313726,-0.350140056022409,-0.5602240896358543
-0.295,IMU0,-0.01708984375,-0.49658203125,-0.03466796875,-0.5602240896358543,-0.42016806722689076,-0.5602240896358543
-0.285,IMU0,-0.01513671875,-0.49658203125,-0.0341796875,-0.4901960784313726,-0.700280112044818,-0.5602240896358543
-0.275,IMU0,-0.021484375,-0.4951171875,-0.03564453125,-0.42016806722689076,-1.1904761904761905,-0.5602240896358543
-0.265,IMU0,-0.01806640625,-0.494140625,-0.03857421875,-0.5602240896358543,-1.2605042016806722,-0.5602240896358543
-0.255,IMU0,-0.01220703125,-0.50244140625,-0.03955078125,-0.4901960784313726,-1.1904761904761905,-0.5602240896358543
-0.245,IMU0,-0.02587890625,-0.48779296875,-0.03857421875,-0.42016806722689076,-1.5406162464985995,-0.42016806722689076
-0.235,IMU0,-0.0224609375,-0.50048828125,-0.029296875,-0.42016806722689076,-2.100840336134454,-0.5602240896358543
-0.225,IMU0,-0.02294921875,-0.50341796875,-0.02880859375,-0.2801120448179272,-2.9411764705882355,-0.5602240896358543
-0.215,IMU0,-0.0537109375,-0.56396484375,-0.0107421875,0.2801120448179272,-2.73109243697479,0.0
-0.205,IMU0,-0.0546875,-0.6318359375,-0.04931640625,-1.400560224089636,0.4901960784313726,-1.4705882352941178
-0.195,IMU0,0.01123046875,-0.95263671875,-0.01904296875,-4.341736694677872,10.364145658263306,-1.9607843137254903
-0.185,IMU0,-0.0634765625,-1.17041015625,-0.03466796875,-3.361344537815126,14.495798319327731,-0.0700280112044818
-0.175,IMU0,-0.04248046875,-1.302734375,-0.0068359375,-1.2605042016806722,17.50700280112045,-1.4705882352941178
-0.165,IMU0,0.0517578125,-1.46044921875,-0.01904296875,-0.5602240896358543,20.028011204481793,-1.1904761904761905
-0.155,IMU0,0.04150390625,-1.6015625,-0.052734375,-1.4705882352941178,24.229691876750703,0.350140056022409
-0.145,IMU0,0.00146484375,-1.6796875,-0.07421875,-2.801120448179272,30.672268907563026,0.2801120448179272
-0.135,IMU0,-0.03076171875,-1.732421875,-0.13720703125,-1.8207282913165266,36.34453781512605,0.8403361344537815
-0.125,IMU0,-0.0283203125,-1.75634765625,-0.04833984375,1.5406162464985995,35.714285714285715,0.21008403361344538
-0.115,IMU0,0.00244140625,-1.78076171875,0.046875,3.781512605042017,29.271708683473392,-1.4705882352941178
-0.105,IMU0,-0.05029296875,-1.8173828125,0.03564453125,3.151260504201681,25.7703081232493,-0.9103641456582633
-0.095,IMU0,-0.09375,-1.8564453125,0.00341796875,-0.7703081232492998,28.011204481792717,-0.0700280112044818
-0.085,IMU0,-0.04541015625,-1.90771484375,-0.0498046875,-2.030812324929972,31.302521008403364,-0.5602240896358543
-0.075,IMU0,-0.041015625,-1.95947265625,-0.02490234375,1.6106442577030813,32.35294117647059,-0.7703081232492998
-0.065,IMU0,-0.037109375,-2.0390625,-0.00634765625,3.431372549019608,33.05322128851541,-1.3305322128851542
-0.055,IMU0,0.0146484375,-2.11279296875,0.02099609375,1.050420168067227,31.092436974789916,-1.4705882352941178
-0.045,IMU0,-0.0009765625,-2.1494140625,0.03271484375,0.1400560224089636,28.151260504201684,-1.050420168067227
-0.035,IMU0,0.029296875,-2.30859375,-0.005859375,-0.1400560224089636,30.11204481792717,0.350140056022409
-0.025,IMU0,-0.0185546875,-2.35986328125,-0.0634765625,-4.551820728291316,26.820728291316527,1.400560224089636
-0.015,IMU0,-0.06005859375,-2.4462890625,-0.02099609375,-3.641456582633053,26.820728291316527,1.1204481792717087
-0.005,IMU0,-0.03173828125,-2.58056640625,-0.0283203125,0.700280112044818,29.20168067226891,0.6302521008403361
0.005,IMU0,-0.03466796875,-2.69140625,-0.03076171875,1.6106442577030813,25.910364145658264,-0.21008403361344538
0.015,IMU0,-0.0205078125,-2.77099609375,0.0107421875,0.9803921568627452,19.677871148459385,-0.4901960784313726
0.025,IMU0,-0.03662109375,-2.8232421875,0.02734375,2.5210084033613445,14.565826330532213,-0.700280112044818
0.035,IMU0,-0.07373046875,-2.908203125,-0.03125,4.201680672268908,12.53501400560224,-1.8207282913165266
0.045,IMU0,-0.05322265625,-2.884765625,-0.0546875,0.0,13.025210084033613,-2.6610644257703084
0.055,IMU0,0.005859375,-2.86083984375,-0.064453125,1.400560224089636,12.815126050420169,-2.73109243697479
0.065,IMU0,-0.00341796875,-2.80712890625,-0.08056640625,1.4705882352941178,12.46498599439776,-1.7507002801120448
0.075,IMU0,-0.001953125,-2.76806640625,-0.07470703125,2.380952380952381,11.064425770308123,-0.7703081232492998
0.085,IMU0,-0.015625,-2.7578125,0.01123046875,3.011204481792717,7.633053221288516,-0.4901960784313726
0.095,IMU0,-0.10302734375,-2.78955078125,-0.00830078125,4.271708683473389,-1.1204481792717087,-0.4901960784313726
0.105,IMU0,-0.095703125,-2.89892578125,-0.05908203125,3.8515406162464987,-4.271708683473389,-1.8207282913165266
0.115,IMU0,-0.04541015625,-2.943359375,-0.046875,2.380952380952381,-11.624649859943979,-2.9411764705882355
0.125,IMU0,-0.08642578125,-2.99853515625,-0.0361328125,4.831932773109244,-20.308123249299722,-2.9411764705882355
0.135,IMU0,-0.02783203125,-3.08203125,0.0419921875,4.971988795518207,-18.907563025210084,-2.9411764705882355
0.145,IMU0,0.06005859375,-3.16015625,0.11767578125,4.201680672268908,-14.005602240896359,-2.5910364145658265
0.155,IMU0,0.0732421875,-3.275390625,0.12060546875,4.411764705882353,-10.57422969187675,-0.8403361344537815
0.165,IMU0,-0.0146484375,-3.36865234375,0.01416015625,1.7507002801120448,-12.815126050420169,0.0
0.175,IMU0,-0.0751953125,-3.44287109375,-0.0107421875,-1.7507002801120448,-16.31652661064426,0.0700280112044818
0.185,IMU0,-0.10498046875,-3.56396484375,-0.0537109375,-0.700280112044818,-15.476190476190476,0.350140056022409
0.195,IMU0,-0.1025390625,-3.603515625,0.1357421875,4.131652661064426,-17.787114845938376,-1.4705882352941178
0.205,IMU0,-0.00048828125,-3.77197265625,0.22607421875,8.893557422969188,-22.268907563025213,-0.6302521008403361
0.215,IMU0,-0.083984375,-3.73388671875,0.0146484375,-0.9803921568627452,-23.459383753501402,2.030812324929972
0.225,IMU0,-0.05224609375,-3.72314453125,-0.099609375,-7.072829131652662,-20.308123249299722,-4.131652661064426
0.235,IMU0,0.1162109375,-3.77294921875,-0.1083984375,-5.9523809523809526,-20.72829131652661,-3.431372549019608
0.245,IMU0,0.078125,-3.8076171875,-0.11279296875,-1.6106442577030813,-30.952380952380953,0.7703081232492998
0.255,IMU0,-0.03564453125,-3.80322265625,0.01318359375,2.5210084033613445,-37.53501400560224,0.700280112044818
0.265,IMU0,-0.041015625,-3.89306640625,0.17919921875,7.843137254901961,-38.16526610644258,0.7703081232492998
0.275,IMU0,-0.087890625,-3.9658203125,-0.015625,3.431372549019608,-33.96358543417367,3.2212885154061626
0.285,IMU0,-0.0078125,-3.9921875,0.08056640625,-2.030812324929972,-39.075630252100844,-0.5602240896358543
0.295,IMU0,0.0654296875,-4.06103515625,-0.05908203125,0.0700280112044818,-47.89915966386555,-2.9411764705882355
0.305,IMU0,0.10791015625,-4.0634765625,-0.10107421875,-0.700280112044818,-47.61904761904762,0.1400560224089636
0.315,IMU0,-0.0361328125,-4.041015625,-0.24462890625,-0.4901960784313726,-53.641456582633054,2.170868347338936
0.325,IMU0,-0.1103515625,-4.0361328125,0.005859375,3.2913165266106446,-49.2296918767507,1.9607843137254903
0.335,IMU0,-0.0712890625,-4.18017578125,0.12841796875,12.88515406162465,-33.26330532212885,2.380952380952381
0.345,IMU0,0.037109375,-4.22314453125,0.1591796875,7.703081232492997,-26.96078431372549,4.831932773109244
0.355,IMU0,-0.1923828125,-4.17919921875,0.1357421875,1.8907563025210086,-36.5546218487395,3.081232492997199
0.365,IMU0,-0.11865234375,-4.18994140625,0.123046875,0.9803921568627452,-34.87394957983194,2.030812324929972
0.375,IMU0,-0.18017578125,-4.22607421875,-0.10302734375,-2.5910364145658265,-38.72549019607843,0.1400560224089636
0.385,IMU0,-0.16015625,-4.26806640625,-0.08984375,-4.131652661064426,-45.79831932773109,-4.061624649859944
0.395,IMU0,0.005859375,-4.3583984375,-0.0361328125,0.350140056022409,-42.016806722689076,-6.792717086834735
0.405,IMU0,-0.23974609375,-4.30810546875,0.11962890625,2.5210084033613445,-36.34453781512605,-0.7703081232492998
0.415,IMU0,-0.076171875,-4.4453125,0.16357421875,3.2913165266106446,-31.022408963585434,-1.6106442577030813
0.425,IMU0,-0.17041015625,-4.4033203125,0.365234375,-2.170868347338936,-18.417366946778714,-2.2408963585434174
0.435,IMU0,-0.1494140625,-4.38818359375,0.20263671875,-3.9215686274509807,-5.182072829131653,-2.5910364145658265
0.445,IMU0,-0.02783203125,-4.40966796875,0.19091796875,-7.773109243697479,10.92436974789916,-4.481792717086835
0.455,IMU0,0.0224609375,-4.46875,0.03076171875,-9.243697478991598,9.873949579831933,-4.061624649859944
0.465,IMU0,-0.1640625,-4.52294921875,-0.45556640625,-17.22689075630252,7.002801120448179,-5.602240896358544
0.475,IMU0,-0.08349609375,-4.513671875,-0.115234375,-17.016806722689076,14.355742296918768,-1.3305322128851542
0.485,IMU0,0.0322265625,-4.53857421875,0.07421875,10.364145658263306,31.58263305322129,-1.9607843137254903
0.495,IMU0,0.0654296875,-4.7021484375,0.29833984375,16.80672268907563,34.38375350140056,0.7703081232492998
0.505,IMU0,-0.08544921875,-4.6650390625,0.08740234375,0.700280112044818,17.92717086834734,1.6106442577030813
0.515,IMU0,0.0263671875,-4.66357421875,0.06396484375,-0.0700280112044818,3.991596638655462,-3.9215686274509807
0.525,IMU0,0.0048828125,-4.623046875,0.09375,-0.6302521008403361,-4.341736694677872,-2.73109243697479
0.535,IMU0,-0.07470703125,-4.65185546875,0.07568359375,0.1400560224089636,-8.123249299719888,-0.2801120448179272
0.545,IMU0,0.017578125,-4.6044921875,0.12158203125,0.8403361344537815,-6.582633053221289,-0.2801120448179272
0.555,IMU0,-0.0576171875,-4.6611328125,0.03271484375,0.5602240896358543,-9.943977591036415,-0.2801120448179272
0.565,IMU0,-0.02490234375,-4.7548828125,0.111328125,1.8907563025210086,-9.103641456582633,1.050420168067227
0.575,IMU0,-0.01416015625,-4.77197265625,0.107421875,1.8207282913165266,-10.294117647058824,0.9103641456582633
0.585,IMU0,-0.033203125,-4.8330078125,0.0966796875,2.450980392156863,-12.394957983193278,1.050420168067227
0.595,IMU0,-0.04541015625,-4.736328125,0.08154296875,2.450980392156863,-12.955182072829132,1.8907563025210086
0.605,IMU0,-0.02734375,-4.7412109375,0.09423828125,3.011204481792717,-13.725490196078432,1.7507002801120448
0.615,IMU0,-0.04736328125,-4.7939453125,0.08251953125,3.5714285714285716,-16.176470588235293,2.030812324929972
0.625,IMU0,-0.02783203125,-4.76318359375,0.0771484375,3.711484593837535,-16.876750700280112,2.380952380952381
0.635,IMU0,-0.03173828125,-4.8642578125,0.099609375,4.481792717086835,-18.627450980392158,2.5910364145658265
0.645,IMU0,-0.03466796875,-4.93310546875,0.09716796875,4.69187675070028,-20.58823529411765,3.081232492997199
0.655,IMU0,-0.0390625,-4.9150390625,0.09130859375,4.621848739495799,-21.9187675070028,2.8711484593837535
0.665,IMU0,-0.02490234375,-4.861328125,0.103515625,5.2521008403361344,-22.198879551820728,3.5014005602240896
0.675,IMU0,-0.0400390625,-4.83251953125,0.091796875,5.322128851540617,-23.529411764705884,3.781512605042017
0.685,IMU0,-0.03076171875,-4.8212890625,0.08544921875,5.8123249299719895,-24.229691876750703,4.131652661064426
0.695,IMU0,-0.03515625,-4.79541015625,0.08935546875,6.302521008403362,-26.330532212885156,4.201680672268908
0.705,IMU0,-0.04833984375,-4.80322265625,0.078125,6.512605042016807,-28.011204481792717,4.69187675070028
0.715,IMU0,-0.03271484375,-4.8330078125,0.07861328125,7.002801120448179,-28.781512605042018,4.621848739495799
0.725,IMU0,-0.05029296875,-4.8544921875,0.08642578125,7.563025210084034,-30.3921568627451,4.831932773109244
0.735,IMU0,-0.0166015625,-4.828125,0.05615234375,7.142857142857143,-30.952380952380953,5.042016806722689
0.745,IMU0,-0.04345703125,-4.8740234375,0.1357421875,10.294117647058824,-31.65266106442577,5.9523809523809526
0.755,IMU0,-0.033203125,-4.84326171875,0.11865234375,7.773109243697479,-34.87394957983194,5.46218487394958
0.765,IMU0,-0.03955078125,-4.83642578125,0.0673828125,7.352941176470589,-35.7843137254902,5.46218487394958
0.775,IMU0,-0.033203125,-4.9013671875,0.12890625,9.523809523809524,-37.81512605042017,5.8123249299719895
0.785,IMU0,-0.03466796875,-4.876953125,0.09765625,7.633053221288516,-40.68627450980392,5.9523809523809526
0.795,IMU0,-0.0419921875,-4.95654296875,0.08447265625,7.913165266106443,-41.10644257703081,6.0924369747899165
0.805,IMU0,-0.05859375,-4.80126953125,0.09375,8.96358543417367,-43.69747899159664,6.022408963585434
0.815,IMU0,-0.02392578125,-4.86669921875,0.0888671875,7.563025210084034,-44.81792717086835,6.162464985994398
0.825,IMU0,-0.04541015625,-4.8955078125,0.09423828125,8.893557422969188,-46.148459383753504,6.442577030812325
0.835,IMU0,-0.03125,-4.9091796875,0.1142578125,8.753501400560225,-47.26890756302521,6.23249299719888
0.845,IMU0,-0.04931640625,-4.91064453125,0.07470703125,7.983193277310924,-47.75910364145658,6.582633053221289
0.855,IMU0,-0.046875,-4.93603515625,0.0986328125,8.753501400560225,-48.66946778711485,6.442577030812325
0.865,IMU0,-0.05078125,-4.92041015625,0.10595703125,8.263305322128852,-48.24929971988796,6.582633053221289
0.875,IMU0,-0.05029296875,-4.91357421875,0.0859375,7.843137254901961,-47.689075630252105,6.722689075630252
0.885,IMU0,-0.0302734375,-4.923828125,0.095703125,7.773109243697479,-47.47899159663866,6.722689075630252
0.895,IMU0,-0.0634765625,-4.93408203125,0.09228515625,7.633053221288516,-48.109243697478995,6.582633053221289
0.905,IMU0,-0.0400390625,-4.93701171875,0.1015625,7.563025210084034,-47.26890756302521,6.442577030812325
0.915,IMU0,-0.046875,-4.93408203125,0.09033203125,7.002801120448179,-48.03921568627451,6.792717086834735
0.925,IMU0,-0.02587890625,-4.9404296875,0.0849609375,6.932773109243698,-48.03921568627451,6.582633053221289
0.935,IMU0,-0.04345703125,-4.9306640625,0.1005859375,6.932773109243698,-48.66946778711485,6.722689075630252
0.945,IMU0,-0.05712890625,-4.89990234375,0.083984375,6.442577030812325,-47.96918767507003,6.722689075630252
0.955,IMU0,-0.0517578125,-4.9033203125,0.08544921875,6.0924369747899165,-48.03921568627451,6.722689075630252
0.965,IMU0,-0.03466796875,-4.9287109375,0.10107421875,5.8123249299719895,-46.63865546218488,6.652661064425771
0.975,IMU0,-0.04638671875,-4.92529296875,0.091796875,5.2521008403361344,-46.498599439775916,6.932773109243698
0.985,IMU0,-0.05126953125,-4.9208984375,0.0703125,4.831932773109244,-46.42857142857143,6.512605042016807
0.995,IMU0,-0.04052734375,-4.93017578125,0.09814453125,5.042016806722689,-45.728291316526615,6.512605042016807
1.005,IMU0,-0.05126953125,-4.927734375,0.10107421875,4.061624649859944,-46.498599439775916,6.442577030812325
1.015,IMU0,-0.03271484375,-4.919921875,0.0751953125,2.8711484593837535,-46.00840336134454,6.23249299719888
1.025,IMU0,-0.0322265625,-4.9443359375,0.11962890625,3.361344537815126,-48.38935574229692,6.0924369747899165
1.035,IMU0,-0.06005859375,-4.9658203125,0.08935546875,1.9607843137254903,-49.299719887955185,5.9523809523809526
1.045,IMU0,-0.04248046875,-4.96826171875,0.07666015625,1.400560224089636,-49.57983193277311,5.742296918767507
1.055,IMU0,-0.052734375,-4.95947265625,0.1025390625,1.9607843137254903,-49.36974789915966,5.5322128851540615
1.065,IMU0,-0.06201171875,-4.90625,0.080078125,0.350140056022409,-51.40056022408964,5.46218487394958
1.075,IMU0,-0.0234375,-4.919921875,0.0986328125,0.1400560224089636,-52.030812324929975,5.042016806722689
1.085,IMU0,-0.0458984375,-4.939453125,0.0986328125,0.0,-53.78151260504202,4.761904761904762
1.095,IMU0,-0.0361328125,-4.92626953125,0.0859375,-1.1904761904761905,-54.061624649859944,4.971988795518207
1.105,IMU0,-0.04345703125,-4.9306640625,0.08837890625,-0.9803921568627452,-54.13165266106443,4.551820728291316
1.115,IMU0,-0.0517578125,-4.8994140625,0.08154296875,-1.2605042016806722,-54.411764705882355,4.69187675070028
1.125,IMU0,-0.0517578125,-4.90673828125,0.07275390625,-1.6106442577030813,-54.20168067226891,4.69187675070028
1.135,IMU0,-0.04296875,-4.9150390625,0.0732421875,-1.400560224089636,-55.04201680672269,3.991596638655462
1.145,IMU0,-0.02392578125,-4.98681640625,0.0927734375,-1.8907563025210086,-56.9327731092437,4.271708683473389
1.155,IMU0,-0.04345703125,-4.7783203125,0.0869140625,-2.73109243697479,-59.87394957983194,4.061624649859944
1.165,IMU0,-0.05712890625,-4.9619140625,0.0673828125,-2.6610644257703084,-61.274509803921575,3.431372549019608
1.175,IMU0,-0.0615234375,-4.93603515625,0.08935546875,-3.8515406162464987,-62.95518207282913,3.431372549019608
1.185,IMU0,-0.0322265625,-4.953125,0.0869140625,-3.8515406162464987,-65.33613445378151,2.9411764705882355
1.195,IMU0,-0.0458984375,-4.95166015625,0.08984375,-3.9215686274509807,-66.80672268907563,2.450980392156863
1.205,IMU0,-0.03076171875,-4.9189453125,0.09033203125,-4.69187675070028,-67.71708683473389,3.081232492997199
1.215,IMU0,-0.04150390625,-4.92041015625,0.09912109375,-4.761904761904762,-70.23809523809524,2.5910364145658265
1.225,IMU0,-0.05419921875,-4.91015625,0.08544921875,-5.2521008403361344,-72.05882352941177,2.9411764705882355
1.235,IMU0,-0.05615234375,-4.86572265625,0.06298828125,-5.8123249299719895,-71.9187675070028,3.011204481792717
1.245,IMU0,-0.04638671875,-4.86572265625,0.09619140625,-5.2521008403361344,-72.6890756302521,2.6610644257703084
1.255,IMU0,-0.021484375,-4.87548828125,0.0947265625,-6.0924369747899165,-72.19887955182074,2.73109243697479
1.265,IMU0,-0.05126953125,-4.8798828125,0.064453125,-6.162464985994398,-74.57983193277312,2.5910364145658265
1.275,IMU0,-0.037109375,-4.86865234375,0.107421875,-5.742296918767507,-75.49019607843138,2.5910364145658265
1.285,IMU0,-0.05517578125,-4.87060546875,0.080078125,-6.652661064425771,-76.33053221288516,2.5910364145658265
1.295,IMU0,-0.044921875,-4.87744140625,0.07666015625,-6.372549019607844,-76.47058823529412,2.73109243697479
1.305,IMU0,-0.04150390625,-4.85546875,0.09716796875,-6.022408963585434,-75.84033613445378,2.8711484593837535
1.315,IMU0,-0.060546875,-4.845703125,0.06494140625,-6.582633053221289,-75.98039215686275,3.081232492997199
1.325,IMU0,-0.0341796875,-4.8408203125,0.08837890625,-5.8123249299719895,-73.8795518207283,3.011204481792717
1.335,IMU0,-0.05615234375,-4.84716796875,0.09228515625,-5.9523809523809526,-74.36974789915966,3.2212885154061626
1.345,IMU0,-0.01904296875,-4.81396484375,0.109375,-5.5322128851540615,-72.96918767507003,3.2212885154061626
1.355,IMU0,-0.06787109375,-4.80615234375,0.0732421875,-5.742296918767507,-73.03921568627452,3.5014005602240896
1.365,IMU0,-0.02880859375,-4.8125,0.07470703125,-5.2521008403361344,-71.07843137254902,3.431372549019608
1.375,IMU0,-0.05859375,-4.802734375,0.083984375,-4.901960784313726,-70.09803921568627,4.061624649859944
1.385,IMU0,-0.0517578125,-4.806640625,0.0859375,-4.551820728291316,-69.46778711484595,3.711484593837535
1.395,IMU0,-0.02734375,-4.80078125,0.10986328125,-4.061624649859944,-67.43697478991596,4.131652661064426
1.405,IMU0,-0.05615234375,-4.78662109375,0.05224609375,-4.341736694677872,-67.08683473389355,4.061624649859944
1.415,IMU0,-0.048828125,-4.77685546875,0.08837890625,-3.151260504201681,-65.82633053221289,3.711484593837535
1.425,IMU0,-0.04541015625,-4.77392578125,0.1103515625,-3.2212885154061626,-64.28571428571429,4.201680672268908
1.435,IMU0,-0.04638671875,-4.7685546875,0.06689453125,-3.361344537815126,-64.6358543417367,3.711484593837535
1.445,IMU0,-0.0439453125,-4.79052734375,0.11181640625,-2.450980392156863,-64.2156862745098,3.991596638655462
1.455,IMU0,-0.0234375,-4.7900390625,0.115234375,-2.5910364145658265,-64.07563025210084,4.061624649859944
1.465,IMU0,-0.03369140625,-4.791015625,0.08544921875,-2.100840336134454,-65.26610644257704,3.991596638655462
1.475,IMU0,-0.060546875,-4.81640625,0.0908203125,-1.4705882352941178,-65.19607843137256,4.411764705882353
1.485,IMU0,-0.0205078125,-4.8056640625,0.12109375,-1.2605042016806722,-64.77591036414566,3.8515406162464987
1.495,IMU0,-0.068359375,-4.763671875,0.072265625,-0.4901960784313726,-64.00560224089637,4.271708683473389
1.505,IMU0,-0.06494140625,-4.767578125,0.09326171875,-0.0700280112044818,-63.72549019607843,3.361344537815126
1.515,IMU0,-0.02685546875,-4.75732421875,0.10009765625,0.6302521008403361,-62.464985994397765,2.8711484593837535
1.525,IMU0,-0.0595703125,-4.7626953125,0.10986328125,1.2605042016806722,-64.07563025210084,2.801120448179272
1.535,IMU0,-0.0361328125,-4.73095703125,0.08740234375,1.1204481792717087,-64.28571428571429,1.680672268907563
1.545,IMU0,-0.0576171875,-4.7265625,0.09375,2.030812324929972,-63.72549019607843,1.6106442577030813
1.555,IMU0,-0.072265625,-4.7294921875,0.1044921875,2.3109243697478994,-62.675070028011206,1.2605042016806722
1.565,IMU0,-0.029296875,-4.71728515625,0.07275390625,2.170868347338936,-61.5546218487395,0.5602240896358543
1.575,IMU0,-0.068359375,-4.70654296875,0.08544921875,3.781512605042017,-60.64425770308124,0.42016806722689076
1.585,IMU0,-0.0341796875,-4.70654296875,0.08154296875,3.2913165266106446,-59.80392156862745,-0.0700280112044818
1.595,IMU0,-0.02978515625,-4.6923828125,0.0771484375,2.8711484593837535,-58.40336134453782,-0.2801120448179272
1.605,IMU0,-0.06201171875,-4.70947265625,0.1123046875,4.551820728291316,-58.89355742296919,-0.5602240896358543
1.615,IMU0,-0.0380859375,-4.70849609375,0.08447265625,3.151260504201681,-57.77310924369748,-1.1204481792717087
1.625,IMU0,-0.06103515625,-4.69677734375,0.07421875,3.781512605042017,-58.333333333333336,-0.7703081232492998
1.635,IMU0,-0.029296875,-4.70361328125,0.11767578125,4.411764705882353,-57.00280112044818,-1.9607843137254903
1.645,IMU0,-0.0556640625,-4.66259765625,0.07177734375,3.011204481792717,-57.49299719887956,-1.6106442577030813
1.655,IMU0,-0.04296875,-4.654296875,0.099609375,4.201680672268908,-55.53221288515407,-1.8907563025210086
1.665,IMU0,-0.02880859375,-4.66357421875,0.09716796875,4.411764705882353,-55.252100840336134,-2.2408963585434174
1.675,IMU0,-0.03466796875,-4.65478515625,0.08447265625,3.5014005602240896,-57.212885154061624,-1.8907563025210086
1.685,IMU0,-0.03662109375,-4.66845703125,0.07373046875,4.621848739495799,-56.372549019607845,-2.450980392156863
1.695,IMU0,-0.04150390625,-4.6640625,0.09033203125,4.481792717086835,-55.11204481792717,-2.3109243697478994
1.705,IMU0,-0.0693359375,-4.6416015625,0.07568359375,3.781512605042017,-53.8515406162465,-2.170868347338936
1.715,IMU0,-0.060546875,-4.634765625,0.095703125,4.621848739495799,-53.991596638655466,-3.2913165266106446
1.725,IMU0,-0.0390625,-4.619140625,0.1005859375,3.781512605042017,-53.01120448179272,-3.431372549019608
1.735,IMU0,-0.0654296875,-4.611328125,0.05810546875,3.9215686274509807,-52.52100840336135,-3.711484593837535
1.745,IMU0,-0.04443359375,-4.6044921875,0.07470703125,4.551820728291316,-52.3109243697479,-4.341736694677872
1.755,IMU0,-0.0556640625,-4.59521484375,0.1025390625,3.431372549019608,-52.871148459383754,-3.711484593837535
1.765,IMU0,-0.06103515625,-4.5869140625,0.08544921875,3.5714285714285716,-51.05042016806723,-4.061624649859944
1.775,IMU0,-0.04833984375,-4.56787109375,0.076171875,2.9411764705882355,-50.21008403361345,-4.341736694677872
1.785,IMU0,-0.048828125,-4.560546875,0.0732421875,2.450980392156863,-46.84873949579832,-3.781512605042017
1.795,IMU0,-0.04833984375,-4.5595703125,0.06396484375,2.801120448179272,-49.089635854341736,-4.201680672268908
1.805,IMU0,-0.07177734375,-4.53515625,0.07568359375,2.380952380952381,-50.280112044817926,-3.8515406162464987
1.815,IMU0,-0.076171875,-4.517578125,0.06982421875,1.4705882352941178,-48.529411764705884,-3.5014005602240896
1.825,IMU0,-0.03857421875,-4.52001953125,0.087890625,1.680672268907563,-47.40896358543418,-3.081232492997199
1.835,IMU0,-0.0634765625,-4.5048828125,0.08251953125,1.050420168067227,-49.089635854341736,-3.361344537815126
1.845,IMU0,-0.052734375,-4.48974609375,0.0458984375,0.350140056022409,-46.918767507002805,-2.450980392156863
1.855,IMU0,-0.05810546875,-4.4970703125,0.056640625,1.400560224089636,-45.44817927170869,-2.030812324929972
1.865,IMU0,-0.05859375,-4.4716796875,0.10009765625,0.7703081232492998,-45.79831932773109,-1.9607843137254903
1.875,IMU0,-0.0478515625,-4.4716796875,0.07275390625,-0.4901960784313726,-44.88795518207283,-1.3305322128851542
1.885,IMU0,-0.0654296875,-4.44091796875,0.05029296875,0.2801120448179272,-45.728291316526615,-0.9803921568627452
1.895,IMU0,-0.0322265625,-4.4873046875,0.06591796875,-0.21008403361344538,-45.728291316526615,-0.350140056022409
1.905,IMU0,-0.037109375,-4.51953125,0.0927734375,-1.050420168067227,-46.358543417366946,0.1400560224089636
1.915,IMU0,-0.0810546875,-4.51708984375,0.05029296875,-0.9103641456582633,-44.537815126050425,0.9803921568627452
1.925,IMU0,-0.0546875,-4.49560546875,0.06689453125,-1.3305322128851542,-45.44817927170869,1.050420168067227
1.935,IMU0,-0.0732421875,-4.42138671875,0.06982421875,-2.170868347338936,-46.21848739495798,1.8907563025210086
1.945,IMU0,-0.0439453125,-4.4248046875,0.078125,-1.7507002801120448,-42.64705882352941,2.100840336134454
1.955,IMU0,-0.06689453125,-4.4091796875,0.08984375,-2.6610644257703084,-45.09803921568628,1.1904761904761905
1.965,IMU0,-0.0966796875,-4.3623046875,0.06494140625,-3.361344537815126,-45.51820728291317,1.8907563025210086
1.975,IMU0,-0.06494140625,-4.37158203125,0.0576171875,-2.100840336134454,-43.27731092436975,2.170868347338936
1.985,IMU0,-0.08203125,-4.37109375,0.052734375,-2.8711484593837535,-44.81792717086835,1.680672268907563
1.995,IMU0,-0.0712890625,-4.35107421875,0.0595703125,-2.6610644257703084,-44.397759103641455,2.380952380952381
2.005,IMU0,-0.0634765625,-4.34814453125,0.06591796875,-2.100840336134454,-43.62745098039216,1.8907563025210086
2.015,IMU0,-0.0771484375,-4.3291015625,0.04443359375,-2.100840336134454,-44.11764705882353,2.2408963585434174
2.025,IMU0,-0.0703125,-4.31591796875,0.07568359375,-0.7703081232492998,-42.997198879551824,2.73109243697479
2.035,IMU0,-0.02880859375,-4.2998046875,0.080078125,-1.6106442577030813,-41.1764705882353,2.2408963585434174
2.045,IMU0,-0.07421875,-4.27587890625,0.06103515625,0.1400560224089636,-42.85714285714286,3.431372549019608
2.055,IMU0,-0.04638671875,-4.3046875,0.08935546875,0.4901960784313726,-41.73669467787115,3.2913165266106446
2.065,IMU0,-0.04150390625,-4.263671875,0.06884765625,0.42016806722689076,-42.36694677871149,3.2913165266106446
2.075,IMU0,-0.0869140625,-4.2646484375,0.04638671875,1.8207282913165266,-41.66666666666667,3.991596638655462
2.085,IMU0,-0.033203125,-4.24755859375,0.08154296875,1.9607843137254903,-41.73669467787115,3.361344537815126
2.095,IMU0,-0.0263671875,-4.24169921875,0.07373046875,1.5406162464985995,-43.417366946778714,3.361344537815126
2.105,IMU0,-0.05615234375,-4.2294921875,0.09228515625,2.8711484593837535,-43.62745098039216,4.271708683473389
2.115,IMU0,-0.03564453125,-4.1953125,0.09033203125,3.2913165266106446,-44.25770308123249,3.151260504201681
2.125,IMU0,-0.08935546875,-4.173828125,0.03515625,3.431372549019608,-43.13725490196079,3.991596638655462
2.135,IMU0,-0.04931640625,-4.1923828125,0.0771484375,4.481792717086835,-41.806722689075634,3.431372549019608
2.145,IMU0,-0.00439453125,-4.1806640625,0.1162109375,5.392156862745098,-43.13725490196079,1.7507002801120448
2.155,IMU0,-0.0556640625,-4.1845703125,0.080078125,6.0924369747899165,-44.25770308123249,2.3109243697478994
2.165,IMU0,-0.05615234375,-4.14501953125,0.07177734375,6.302521008403362,-45.30812324929972,0.9803921568627452
2.175,IMU0,-0.0615234375,-4.13037109375,0.052734375,6.582633053221289,-44.537815126050425,0.4901960784313726
2.185,IMU0,-0.06640625,-4.130859375,0.0673828125,7.002801120448179,-44.6078431372549,0.0
2.195,IMU0,-0.037109375,-4.109375,0.06103515625,6.932773109243698,-45.728291316526615,-1.5406162464985995
2.205,IMU0,-0.037109375,-4.126953125,0.0810546875,7.42296918767507,-46.98879551820728,-1.2605042016806722
2.215,IMU0,-0.04833984375,-4.1201171875,0.05859375,8.053221288515406,-47.61904761904762,-2.380952380952381
2.225,IMU0,-0.03515625,-4.06884765625,0.07275390625,7.42296918767507,-49.43977591036415,-3.151260504201681
2.235,IMU0,-0.02392578125,-4.0859375,0.0703125,6.722689075630252,-50.56022408963586,-2.9411764705882355
2.245,IMU0,-0.0283203125,-4.07177734375,0.07177734375,7.492997198879552,-47.54901960784314,-2.73109243697479
2.255,IMU0,-0.06787109375,-4.05224609375,0.02001953125,5.882352941176471,-50.0,-3.361344537815126
2.265,IMU0,-0.05712890625,-4.02587890625,0.044921875,5.882352941176471,-52.450980392156865,-3.9215686274509807
2.275,IMU0,-0.052734375,-4.01708984375,0.03955078125,5.46218487394958,-51.47058823529412,-3.2913165266106446
2.285,IMU0,-0.03173828125,-4.0068359375,0.06982421875,4.551820728291316,-52.73109243697479,-3.711484593837535
2.295,IMU0,-0.0498046875,-3.98779296875,0.04150390625,2.8711484593837535,-52.59103641456583,-3.5714285714285716
2.305,IMU0,-0.10400390625,-3.9697265625,0.05126953125,2.6610644257703084,-53.57142857142858,-3.2913165266106446
2.315,IMU0,-0.03271484375,-3.927734375,0.06298828125,1.8207282913165266,-51.40056022408964,-3.9215686274509807
2.325,IMU0,-0.09521484375,-3.93701171875,0.0166015625,1.050420168067227,-52.52100840336135,-3.011204481792717
2.335,IMU0,-0.044921875,-3.93798828125,0.044921875,-0.2801120448179272,-51.75070028011205,-3.2913165266106446
2.345,IMU0,-0.0556640625,-3.91845703125,0.0458984375,-0.700280112044818,-53.01120448179272,-3.431372549019608
2.355,IMU0,-0.072265625,-3.9287109375,0.03173828125,0.1400560224089636,-49.089635854341736,-2.3109243697478994
2.365,IMU0,-0.0439453125,-3.91455078125,0.03515625,-1.1904761904761905,-48.03921568627451,-2.450980392156863
2.375,IMU0,-0.0615234375,-3.876953125,0.04345703125,-1.050420168067227,-45.79831932773109,-1.680672268907563
2.385,IMU0,-0.09716796875,-3.8642578125,0.00537109375,-0.8403361344537815,-46.42857142857143,-0.9803921568627452
2.395,IMU0,-0.0771484375,-3.8466796875,0.017578125,-1.5406162464985995,-45.30812324929972,-1.050420168067227
2.405,IMU0,-0.0126953125,-3.8349609375,0.0947265625,-0.5602240896358543,-45.378151260504204,-0.42016806722689076
2.415,IMU0,-0.09765625,-3.80224609375,-0.00146484375,-1.7507002801120448,-47.54901960784314,0.5602240896358543
2.425,IMU0,-0.0576171875,-3.81103515625,-0.0009765625,-2.3109243697478994,-48.459383753501406,0.9103641456582633
2.435,IMU0,-0.029296875,-3.7998046875,0.0810546875,-0.7703081232492998,-48.59943977591037,0.9803921568627452
2.445,IMU0,-0.10791015625,-3.77001953125,0.0205078125,-1.8207282913165266,-45.378151260504204,2.100840336134454
2.455,IMU0,-0.07958984375,-3.740234375,0.001953125,-2.3109243697478994,-42.577030812324935,2.170868347338936
2.465,IMU0,-0.05224609375,-3.73486328125,0.0703125,-1.050420168067227,-44.32773109243698,2.170868347338936
2.475,IMU0,-0.07666015625,-3.71826171875,0.017578125,-1.9607843137254903,-43.4873949579832,3.2212885154061626
2.485,IMU0,-0.05078125,-3.70068359375,0.03125,-2.5210084033613445,-44.957983193277315,2.170868347338936
2.495,IMU0,-0.0537109375,-3.70068359375,0.0634765625,-0.5602240896358543,-44.187675070028014,2.5210084033613445
2.505,IMU0,-0.05859375,-3.6611328125,0.0126953125,-2.450980392156863,-42.577030812324935,2.030812324929972
2.515,IMU0,-0.0166015625,-3.6484375,-0.00439453125,-0.9103641456582633,-40.54621848739496,2.2408963585434174
2.525,IMU0,-0.0673828125,-3.65283203125,0.029296875,1.400560224089636,-42.787114845938376,3.5014005602240896
2.535,IMU0,-0.0478515625,-3.64013671875,-0.0029296875,0.21008403361344538,-43.417366946778714,2.170868347338936
2.545,IMU0,-0.048828125,-3.60595703125,0.00830078125,1.4705882352941178,-42.36694677871149,2.5210084033613445
2.555,IMU0,-0.04736328125,-3.630859375,0.0439453125,3.431372549019608,-44.81792717086835,2.6610644257703084
2.565,IMU0,-0.00830078125,-3.58544921875,0.04150390625,1.050420168067227,-44.88795518207283,1.8907563025210086
2.575,IMU0,-0.06884765625,-3.58642578125,0.0107421875,1.9607843137254903,-47.61904761904762,2.5210084033613445
2.585,IMU0,-0.0234375,-3.54296875,0.07763671875,2.3109243697478994,-44.25770308123249,1.8907563025210086
2.595,IMU0,-0.056640625,-3.5185546875,0.01953125,1.5406162464985995,-44.46778711484594,1.6106442577030813
2.605,IMU0,-0.0634765625,-3.50634765625,0.033203125,1.5406162464985995,-45.378151260504204,2.030812324929972
2.615,IMU0,-0.02001953125,-3.4921875,0.04296875,1.6106442577030813,-46.568627450980394,1.050420168067227
2.625,IMU0,-0.05224609375,-3.47216796875,0.01416015625,1.400560224089636,-47.82913165266107,0.5602240896358543
2.635,IMU0,-0.068359375,-3.47314453125,0.009765625,2.380952380952381,-47.54901960784314,1.050420168067227
2.645,IMU0,-0.02099609375,-3.453125,0.0517578125,2.380952380952381,-47.338935574229694,-0.6302521008403361
2.655,IMU0,-0.044921875,-3.42822265625,-0.00244140625,2.6610644257703084,-46.21848739495798,-0.6302521008403361
2.665,IMU0,-0.0791015625,-3.41552734375,0.0126953125,4.061624649859944,-48.109243697478995,-0.6302521008403361
2.675,IMU0,-0.00732421875,-3.3974609375,0.02294921875,3.011204481792717,-47.338935574229694,-2.030812324929972
2.685,IMU0,-0.06787109375,-3.37158203125,-0.00341796875,3.081232492997199,-49.78991596638656,-1.5406162464985995
2.695,IMU0,-0.05615234375,-3.3671875,0.0146484375,3.361344537815126,-49.719887955182074,-2.5210084033613445
2.705,IMU0,-0.0166015625,-3.33740234375,0.00537109375,2.5910364145658265,-50.14005602240896,-3.081232492997199
2.715,IMU0,-0.08056640625,-3.33203125,0.0263671875,3.011204481792717,-50.70028011204482,-2.030812324929972
2.725,IMU0,-0.08447265625,-3.29443359375,0.01025390625,1.9607843137254903,-47.128851540616246,-1.4705882352941178
2.735,IMU0,-0.06201171875,-3.27783203125,0.015625,2.100840336134454,-48.17927170868347,-1.2605042016806722
2.745,IMU0,-0.0390625,-3.2607421875,0.048828125,2.030812324929972,-50.63025210084034,-3.641456582633053
2.755,IMU0,-0.056640625,-3.2578125,0.029296875,0.9103641456582633,-52.59103641456583,-2.801120448179272
2.765,IMU0,-0.06787109375,-3.22998046875,0.00341796875,-0.8403361344537815,-53.71148459383754,-3.5014005602240896
2.775,IMU0,-0.0556640625,-3.22021484375,0.017578125,-0.700280112044818,-51.610644257703086,-5.182072829131653
2.785,IMU0,-0.04931640625,-3.20068359375,0.04248046875,-0.350140056022409,-50.070028011204485,-4.271708683473389
2.795,IMU0,-0.06591796875,-3.17578125,0.0361328125,-1.7507002801120448,-53.36134453781513,-5.182072829131653
2.805,IMU0,-0.06103515625,-3.13916015625,0.02783203125,-1.7507002801120448,-54.97198879551821,-6.022408963585434
2.815,IMU0,-0.0556640625,-3.1298828125,0.04296875,-2.73109243697479,-56.44257703081233,-6.512605042016807
2.825,IMU0,-0.05078125,-3.1162109375,0.01123046875,-3.011204481792717,-56.23249299719888,-5.8123249299719895
2.835,IMU0,-0.103515625,-3.076171875,0.029296875,-2.2408963585434174,-54.27170868347339,-5.322128851540617
2.845,IMU0,-0.06201171875,-3.06591796875,0.0205078125,-1.7507002801120448,-51.33053221288515,-6.372549019607844
2.855,IMU0,-0.09228515625,-3.080078125,0.02099609375,-0.9803921568627452,-50.70028011204482,-4.131652661064426
2.865,IMU0,-0.0654296875,-3.04931640625,0.05419921875,-2.380952380952381,-48.879551820728295,-4.131652661064426
2.875,IMU0,-0.05322265625,-3.0078125,0.0166015625,-1.5406162464985995,-50.56022408963586,-4.481792717086835
2.885,IMU0,-0.10302734375,-3.00146484375,0.048828125,0.0,-48.879551820728295,-2.73109243697479
2.895,IMU0,-0.0830078125,-2.99951171875,0.04541015625,-1.2605042016806722,-46.77871148459384,-2.73109243697479
2.905,IMU0,-0.0537109375,-2.9814453125,0.033203125,-0.9803921568627452,-44.46778711484594,-2.3109243697478994
2.915,IMU0,-0.09326171875,-2.97216796875,0.0498046875,0.42016806722689076,-46.21848739495798,-0.8403361344537815
2.925,IMU0,-0.08056640625,-2.94189453125,0.001953125,-0.8403361344537815,-44.747899159663866,-1.050420168067227
2.935,IMU0,-0.08154296875,-2.904296875,0.0390625,-1.3305322128851542,-43.8375350140056,0.700280112044818
2.945,IMU0,-0.0869140625,-2.921875,0.05419921875,0.2801120448179272,-45.86834733893558,0.5602240896358543
2.955,IMU0,-0.06982421875,-2.87939453125,0.03466796875,-0.700280112044818,-44.32773109243698,0.350140056022409
2.965,IMU0,-0.095703125,-2.8662109375,0.0244140625,0.4901960784313726,-46.42857142857143,1.9607843137254903
2.975,IMU0,-0.04931640625,-2.85302734375,0.041015625,1.050420168067227,-48.459383753501406,0.350140056022409
2.985,IMU0,-0.0673828125,-2.81396484375,0.05029296875,0.7703081232492998,-49.50980392156863,2.3109243697478994
2.995,IMU0,-0.0947265625,-2.79736328125,0.03369140625,-1.1904761904761905,-48.73949579831933,3.991596638655462
3.005,IMU0,-0.05810546875,-2.76171875,0.03369140625,0.0700280112044818,-49.92997198879552,2.170868347338936
3.015,IMU0,-0.0771484375,-2.74853515625,0.064453125,0.8403361344537815,-50.490196078431374,3.361344537815126
3.025,IMU0,-0.08544921875,-2.71484375,0.00341796875,-0.7703081232492998,-48.529411764705884,3.8515406162464987
3.035,IMU0,-0.07666015625,-2.71826171875,0.01513671875,0.9103641456582633,-47.96918767507003,2.8711484593837535
3.045,IMU0,-0.0537109375,-2.736328125,0.08544921875,0.8403361344537815,-47.338935574229694,2.5910364145658265
3.055,IMU0,-0.05322265625,-2.6689453125,-0.01806640625,0.5602240896358543,-47.75910364145658,2.801120448179272
3.065,IMU0,-0.0341796875,-2.64990234375,0.00244140625,1.1904761904761905,-48.459383753501406,1.400560224089636
3.075,IMU0,-0.03173828125,-2.64599609375,0.017578125,3.151260504201681,-48.319327731092436,3.781512605042017
3.085,IMU0,-0.05419921875,-2.6484375,0.0341796875,3.081232492997199,-50.070028011204485,3.361344537815126
3.095,IMU0,-0.0546875,-2.57568359375,0.0009765625,1.1904761904761905,-50.98039215686275,2.8711484593837535
3.105,IMU0,-0.04248046875,-2.5791015625,-0.01611328125,3.2913165266106446,-51.33053221288515,3.2913165266106446
3.115,IMU0,-0.04541015625,-2.560546875,0.02294921875,3.781512605042017,-54.061624649859944,2.030812324929972
3.125,IMU0,-0.03857421875,-2.5009765625,-0.021484375,2.380952380952381,-52.94117647058824,2.73109243697479
3.135,IMU0,-0.0849609375,-2.51171875,-0.01025390625,5.2521008403361344,-54.69187675070028,1.680672268907563
3.145,IMU0,-0.0087890625,-2.51123046875,0.0546875,4.69187675070028,-52.3109243697479,1.1204481792717087
3.155,IMU0,-0.0712890625,-2.478515625,-0.02294921875,2.170868347338936,-53.50140056022409,0.6302521008403361
3.165,IMU0,-0.0576171875,-2.4765625,-0.0068359375,4.201680672268908,-53.92156862745098,0.2801120448179272
3.175,IMU0,-0.0048828125,-2.44189453125,0.02197265625,2.9411764705882355,-52.94117647058824,-1.2605042016806722
3.185,IMU0,-0.02978515625,-2.3994140625,0.005859375,3.361344537815126,-57.352941176470594,-0.7703081232492998
3.195,IMU0,-0.0390625,-2.40478515625,0.0068359375,2.6610644257703084,-57.77310924369748,-1.050420168067227
3.205,IMU0,-0.0234375,-2.37939453125,-0.04052734375,-0.21008403361344538,-52.871148459383754,-0.8403361344537815
3.215,IMU0,-0.04345703125,-2.35205078125,0.005859375,2.2408963585434174,-51.96078431372549,-0.1400560224089636
3.225,IMU0,0.017578125,-2.35986328125,0.025390625,1.4705882352941178,-51.12044817927171,-0.350140056022409
3.235,IMU0,-0.0634765625,-2.314453125,0.001953125,-2.8711484593837535,-50.070028011204485,0.6302521008403361
3.245,IMU0,-0.05224609375,-2.30810546875,-0.03369140625,-1.1904761904761905,-48.529411764705884,1.6106442577030813
3.255,IMU0,-0.00390625,-2.31787109375,0.00244140625,-0.350140056022409,-45.44817927170869,-0.8403361344537815
3.265,IMU0,-0.05126953125,-2.27685546875,0.015625,-0.7703081232492998,-49.15966386554622,0.8403361344537815
3.275,IMU0,-0.0146484375,-2.2626953125,0.0126953125,-2.170868347338936,-48.109243697478995,-0.1400560224089636
3.285,IMU0,-0.02783203125,-2.2177734375,-0.04248046875,-1.050420168067227,-50.0,-1.4705882352941178
3.295,IMU0,-0.083984375,-2.19873046875,-0.03076171875,-0.350140056022409,-51.680672268907564,-0.8403361344537815
3.305,IMU0,-0.013671875,-2.17041015625,0.00927734375,-1.2605042016806722,-48.59943977591037,-1.400560224089636
3.315,IMU0,-0.03955078125,-2.1689453125,-0.0078125,-3.361344537815126,-47.82913165266107,-2.170868347338936
3.325,IMU0,-0.009765625,-2.15771484375,-0.01611328125,-1.050420168067227,-47.96918767507003,-2.030812324929972
3.335,IMU0,-0.01904296875,-2.1220703125,0.02392578125,0.0700280112044818,-53.57142857142858,-2.450980392156863
3.345,IMU0,-0.06396484375,-2.07666015625,-0.04052734375,-2.380952380952381,-55.602240896358545,-2.170868347338936
3.355,IMU0,-0.021484375,-2.0634765625,-0.0263671875,-2.3109243697478994,-54.13165266106443,-2.9411764705882355
3.365,IMU0,-0.02001953125,-2.09326171875,0.04052734375,0.0,-53.57142857142858,-3.431372549019608
3.375,IMU0,-0.0478515625,-2.07958984375,-0.025390625,-2.100840336134454,-52.10084033613445,-2.3109243697478994
3.385,IMU0,-0.02587890625,-2.03857421875,-0.015625,-1.8207282913165266,-52.801120448179276,-2.450980392156863
3.395,IMU0,-0.01171875,-2.05810546875,0.01171875,2.170868347338936,-58.543417366946784,-2.5910364145658265
3.405,IMU0,-0.041015625,-2.01220703125,0.0,0.0700280112044818,-62.885154061624654,-2.5210084033613445
3.415,IMU0,-0.03271484375,-2.01513671875,-0.013671875,-0.1400560224089636,-66.73669467787116,-2.100840336134454
3.425,IMU0,-0.005859375,-1.99169921875,-0.01708984375,0.6302521008403361,-68.76750700280112,-3.2913165266106446
3.435,IMU0,-0.03369140625,-1.9609375,0.0224609375,3.5714285714285716,-70.93837535014006,-3.011204481792717
3.445,IMU0,-0.0400390625,-1.9599609375,-0.021484375,3.8515406162464987,-70.44817927170868,-0.42016806722689076
3.455,IMU0,-0.05615234375,-1.90966796875,-0.02392578125,3.2913165266106446,-69.95798319327731,-0.9803921568627452
3.465,IMU0,-0.04541015625,-1.90625,0.052734375,4.481792717086835,-70.51820728291317,-0.9803921568627452
3.475,IMU0,-0.07275390625,-1.87841796875,-0.0361328125,0.0,-70.37815126050421,-0.9103641456582633
3.485,IMU0,-0.0390625,-1.81982421875,-0.009765625,0.42016806722689076,-72.40896358543418,-1.050420168067227
3.495,IMU0,-0.00341796875,-1.8310546875,-0.0048828125,2.8711484593837535,-73.94957983193278,-2.5210084033613445
3.505,IMU0,-0.0458984375,-1.81689453125,0.009765625,1.1904761904761905,-75.63025210084034,0.0
3.515,IMU0,-0.04248046875,-1.7890625,-0.01123046875,3.011204481792717,-75.0,0.8403361344537815
3.525,IMU0,-0.0439453125,-1.77880859375,-0.01513671875,2.8711484593837535,-75.77030812324931,-0.0700280112044818
3.535,IMU0,-0.06201171875,-1.77392578125,-0.009765625,2.100840336134454,-76.19047619047619,1.050420168067227
3.545,IMU0,-0.07958984375,-1.72412109375,-0.0302734375,0.9803921568627452,-75.77030812324931,0.350140056022409
3.555,IMU0,-0.0673828125,-1.65380859375,-0.0126953125,1.9607843137254903,-68.90756302521008,-0.350140056022409
3.565,IMU0,-0.04296875,-1.6455078125,0.02880859375,0.700280112044818,-66.80672268907563,1.6106442577030813
3.575,IMU0,-0.0947265625,-1.62646484375,-0.068359375,-2.5910364145658265,-67.64705882352942,0.5602240896358543
3.585,IMU0,-0.04736328125,-1.5810546875,-0.0185546875,-1.5406162464985995,-66.31652661064426,-0.700280112044818
3.595,IMU0,-0.09814453125,-1.57177734375,0.0087890625,-0.0700280112044818,-66.31652661064426,1.1904761904761905
3.605,IMU0,-0.08642578125,-1.5634765625,-0.00244140625,-2.170868347338936,-65.19607843137256,-1.3305322128851542
3.615,IMU0,-0.05712890625,-1.51025390625,-0.0634765625,-3.991596638655462,-70.0280112044818,-4.271708683473389
3.625,IMU0,-0.03173828125,-1.4833984375,0.0185546875,-2.100840336134454,-67.50700280112045,-3.5714285714285716
3.635,IMU0,-0.07470703125,-1.4775390625,-0.00927734375,-0.7703081232492998,-68.62745098039215,-1.3305322128851542
3.645,IMU0,-0.0830078125,-1.484375,-0.0439453125,-0.1400560224089636,-66.1764705882353,-2.170868347338936
3.655,IMU0,-0.0556640625,-1.43408203125,-0.00927734375,-0.6302521008403361,-64.14565826330532,-0.7703081232492998
3.665,IMU0,-0.03955078125,-1.28515625,-0.02587890625,-0.1400560224089636,-67.85714285714286,-1.5406162464985995
3.675,IMU0,-0.07568359375,-1.21826171875,-0.0166015625,1.5406162464985995,-68.90756302521008,-2.170868347338936
3.685,IMU0,-0.08447265625,-1.14404296875,-0.06591796875,1.7507002801120448,-69.04761904761905,-1.8907563025210086
3.695,IMU0,-0.037109375,-1.1044921875,-0.0625,1.6106442577030813,-69.95798319327731,-3.2212885154061626
3.705,IMU0,-0.07373046875,-1.046875,-0.06298828125,2.6610644257703084,-70.09803921568627,-3.151260504201681
3.715,IMU0,-0.0263671875,-1.0146484375,-0.04248046875,5.112044817927171,-65.96638655462185,-1.680672268907563
3.725,IMU0,-0.04638671875,-0.990234375,-0.052734375,4.69187675070028,-68.76750700280112,-0.42016806722689076
3.735,IMU0,-0.03857421875,-0.9326171875,-0.029296875,5.112044817927171,-68.0672268907563,-0.6302521008403361
3.745,IMU0,-0.04638671875,-0.90478515625,-0.05078125,6.022408963585434,-68.76750700280112,0.0
3.755,IMU0,-0.0419921875,-0.83740234375,-0.0517578125,3.151260504201681,-68.13725490196079,2.100840336134454
3.765,IMU0,-0.0546875,-0.77392578125,-0.06689453125,5.602240896358544,-71.70868347338936,0.1400560224089636
3.775,IMU0,-0.03173828125,-0.74951171875,-0.0390625,4.341736694677872,-70.65826330532214,1.3305322128851542
3.785,IMU0,-0.08056640625,-0.6630859375,-0.0830078125,1.050420168067227,-69.74789915966387,3.711484593837535
3.795,IMU0,-0.0107421875,-0.60400390625,-0.056640625,1.8207282913165266,-64.9859943977591,1.8207282913165266
3.805,IMU0,-0.06591796875,-0.55126953125,-0.05224609375,3.2212885154061626,-64.84593837535014,3.431372549019608
3.815,IMU0,-0.017578125,-0.50341796875,-0.0556640625,2.2408963585434174,-62.81512605042017,3.361344537815126
3.825,IMU0,-0.03173828125,-0.45556640625,-0.064453125,0.2801120448179272,-63.235294117647065,3.2913165266106446
3.835,IMU0,-0.01416015625,-0.3896484375,-0.080078125,-1.1904761904761905,-63.93557422969188,3.361344537815126
3.845,IMU0,-0.01953125,-0.33984375,-0.05517578125,-1.2605042016806722,-65.19607843137256,3.081232492997199
3.855,IMU0,0.00390625,-0.34619140625,-0.04248046875,0.350140056022409,-64.6358543417367,3.2212885154061626
3.865,IMU0,0.00439453125,-0.30810546875,-0.05615234375,-3.641456582633053,-66.5266106442577,2.8711484593837535
3.875,IMU0,-0.02490234375,-0.25048828125,-0.080078125,-4.901960784313726,-67.64705882352942,2.2408963585434174
3.885,IMU0,-0.01513671875,-0.20458984375,-0.056640625,-3.081232492997199,-68.83753501400561,1.6106442577030813
3.895,IMU0,-0.02001953125,-0.158203125,-0.0234375,-2.380952380952381,-71.00840336134453,0.0700280112044818
3.905,IMU0,-0.0107421875,-0.111328125,-0.041015625,-2.2408963585434174,-73.94957983193278,-1.2605042016806722
3.915,IMU0,-0.001953125,-0.04638671875,-0.03857421875,-4.831932773109244,-76.12044817927172,-1.3305322128851542
3.925,IMU0,0.0048828125,0.0361328125,-0.03369140625,-5.5322128851540615,-80.95238095238095,-2.5910364145658265
3.935,IMU0,0.0009765625,0.08935546875,-0.06591796875,-5.042016806722689,-85.85434173669468,-1.6106442577030813
3.945,IMU0,-0.013671875,0.10986328125,-0.041015625,-4.411764705882353,-89.28571428571429,-2.5210084033613445
3.955,IMU0,-0.04296875,0.1455078125,-0.05126953125,-4.341736694677872,-87.46498599439776,-3.9215686274509807
3.965,IMU0,-0.0400390625,0.17529296875,-0.02978515625,-4.061624649859944,-85.36414565826331,-4.481792717086835
3.975,IMU0,-0.0263671875,0.2265625,-0.0546875,-3.081232492997199,-85.71428571428572,-3.991596638655462
3.985,IMU0,-0.0263671875,0.26416015625,-0.04833984375,-1.1904761904761905,-83.19327731092437,-2.5910364145658265
3.995,IMU0,-0.017578125,0.30078125,-0.04345703125,1.8207282913165266,-82.28291316526611,-2.9411764705882355
4.005,IMU0,0.0009765625,0.32861328125,-0.04248046875,2.450980392156863,-82.56302521008404,-1.7507002801120448
4.015,IMU0,-0.02099609375,0.35302734375,-0.04150390625,4.481792717086835,-84.03361344537815,0.8403361344537815
4.025,IMU0,-0.0341796875,0.37744140625,-0.0341796875,4.831932773109244,-86.34453781512606,-1.3305322128851542
4.035,IMU0,-0.03076171875,0.42041015625,-0.04296875,2.6610644257703084,-85.92436974789916,-2.6610644257703084
4.045,IMU0,-0.0234375,0.4423828125,-0.0634765625,4.201680672268908,-88.72549019607844,-1.680672268907563
4.055,IMU0,-0.025390625,0.49658203125,-0.046875,4.69187675070028,-89.14565826330532,-1.8207282913165266
4.065,IMU0,-0.03125,0.50390625,-0.04052734375,6.582633053221289,-88.44537815126051,-2.170868347338936
4.075,IMU0,-0.05078125,0.53662109375,-0.0556640625,3.8515406162464987,-87.46498599439776,-2.030812324929972
4.085,IMU0,-0.029296875,0.59033203125,-0.03173828125,7.352941176470589,-83.54341736694678,-0.4901960784313726
4.095,IMU0,-0.0283203125,0.61962890625,-0.0439453125,5.46218487394958,-79.06162464985995,0.2801120448179272
4.105,IMU0,-0.02197265625,0.66064453125,-0.0283203125,2.450980392156863,-76.82072829131653,1.9607843137254903
4.115,IMU0,-0.0390625,0.7138671875,-0.0595703125,0.6302521008403361,-79.6218487394958,2.6610644257703084
4.125,IMU0,-0.00732421875,0.7314453125,-0.04052734375,2.3109243697478994,-79.27170868347339,2.2408963585434174
4.135,IMU0,-0.009765625,0.7529296875,-0.0654296875,0.5602240896358543,-78.5014005602241,1.8207282913165266
4.145,IMU0,-0.0283203125,0.775390625,-0.09326171875,0.21008403361344538,-79.55182072829132,2.030812324929972
4.155,IMU0,-0.01318359375,0.8017578125,-0.0810546875,0.9103641456582633,-81.72268907563026,1.680672268907563
4.165,IMU0,-0.017578125,0.7939453125,-0.009765625,1.7507002801120448,-79.83193277310924,1.680672268907563
4.175,IMU0,-0.0146484375,0.79443359375,-0.0078125,-3.641456582633053,-77.73109243697479,2.170868347338936
4.185,IMU0,-0.00244140625,0.76806640625,-0.033203125,-4.621848739495799,-77.73109243697479,2.6610644257703084
4.195,IMU0,-0.04736328125,0.76416015625,-0.0634765625,-4.551820728291316,-78.57142857142857,2.801120448179272
4.205,IMU0,-0.0419921875,0.7392578125,-0.04248046875,-4.061624649859944,-76.19047619047619,1.8207282913165266
4.215,IMU0,-0.01806640625,0.71875,-0.06396484375,-3.431372549019608,-75.28011204481793,0.42016806722689076
4.225,IMU0,-0.0107421875,0.7265625,-0.0791015625,-1.8907563025210086,-77.10084033613445,0.0700280112044818
4.235,IMU0,-0.02587890625,0.73974609375,-0.037109375,-0.8403361344537815,-77.38095238095238,0.4901960784313726
4.245,IMU0,-0.01416015625,0.76025390625,-0.02294921875,-0.1400560224089636,-74.36974789915966,0.0700280112044818
4.255,IMU0,-0.0009765625,0.75537109375,-0.056640625,-1.3305322128851542,-74.85994397759104,-0.8403361344537815
4.265,IMU0,-0.0068359375,0.75537109375,-0.064453125,-0.8403361344537815,-76.9607843137255,-0.42016806722689076
4.275,IMU0,-0.015625,0.7626953125,-0.017578125,-0.4901960784313726,-77.38095238095238,-1.2605042016806722
4.285,IMU0,-0.017578125,0.767578125,-0.04541015625,-0.6302521008403361,-76.89075630252101,-2.100840336134454
4.295,IMU0,-0.0263671875,0.7626953125,-0.064453125,-0.9803921568627452,-74.64985994397759,-2.2408963585434174
4.305,IMU0,-0.01123046875,0.7783203125,-0.0361328125,0.7703081232492998,-74.08963585434174,-2.8711484593837535
4.315,IMU0,-0.0234375,0.7568359375,-0.046875,0.9103641456582633,-71.28851540616247,-3.711484593837535
4.325,IMU0,-0.02685546875,0.78662109375,-0.04296875,-0.42016806722689076,-65.33613445378151,-3.781512605042017
4.335,IMU0,-0.01513671875,0.7685546875,-0.04052734375,-0.0700280112044818,-62.81512605042017,-4.061624649859944
4.345,IMU0,-0.00927734375,0.78271484375,-0.04638671875,-0.700280112044818,-66.1764705882353,-3.8515406162464987
4.355,IMU0,-0.01611328125,0.76953125,-0.05322265625,-0.6302521008403361,-71.5686274509804,-4.131652661064426
4.365,IMU0,-0.021484375,0.76904296875,-0.0390625,0.350140056022409,-74.36974789915966,-3.991596638655462
4.375,IMU0,-0.00341796875,0.775390625,-0.02392578125,0.0700280112044818,-74.85994397759104,-3.9215686274509807
4.385,IMU0,-0.02783203125,0.76904296875,-0.046875,0.700280112044818,-73.24929971988796,-3.361344537815126
4.395,IMU0,-0.0361328125,0.7734375,-0.0712890625,0.9103641456582633,-71.5686274509804,-3.2212885154061626
4.405,IMU0,0.0224609375,0.7685546875,-0.03173828125,0.4901960784313726,-70.65826330532214,-2.5910364145658265
4.415,IMU0,-0.05078125,0.76708984375,-0.04296875,1.3305322128851542,-72.3389355742297,-1.680672268907563
4.425,IMU0,-0.013671875,0.76318359375,-0.04931640625,-0.350140056022409,-69.25770308123249,-1.6106442577030813
4.435,IMU0,-0.00830078125,0.75927734375,-0.05419921875,-0.700280112044818,-69.04761904761905,-1.4705882352941178
4.445,IMU0,-0.02099609375,0.7607421875,-0.03662109375,-0.1400560224089636,-71.21848739495799,-0.21008403361344538
4.455,IMU0,-0.0244140625,0.76416015625,-0.0546875,-0.4901960784313726,-68.76750700280112,0.6302521008403361
4.465,IMU0,-0.0302734375,0.7705078125,-0.0224609375,-0.0700280112044818,-70.7983193277311,0.42016806722689076
4.475,IMU0,-0.0029296875,0.7646484375,-0.01953125,0.9803921568627452,-71.77871148459384,1.2605042016806722
4.485,IMU0,-0.03173828125,0.7529296875,-0.052734375,-1.2605042016806722,-71.21848739495799,1.3305322128851542
4.495,IMU0,-0.00244140625,0.75830078125,-0.0361328125,0.0,-69.25770308123249,1.3305322128851542
4.505,IMU0,-0.02392578125,0.7470703125,-0.041015625,0.0700280112044818,-68.27731092436976,1.400560224089636
4.515,IMU0,-0.01708984375,0.74755859375,-0.06005859375,-0.7703081232492998,-68.27731092436976,1.9607843137254903
4.525,IMU0,-0.02685546875,0.7587890625,-0.02978515625,0.1400560224089636,-70.09803921568627,1.3305322128851542
4.535,IMU0,-0.001953125,0.75537109375,-0.03369140625,0.350140056022409,-67.15686274509804,1.1904761904761905
4.545,IMU0,-0.02734375,0.75537109375,-0.04052734375,0.7703081232492998,-67.92717086834735,1.6106442577030813
4.555,IMU0,-0.017578125,0.7431640625,-0.046875,-1.1904761904761905,-68.55742296918768,0.4901960784313726
4.565,IMU0,0.00537109375,0.74169921875,-0.03466796875,0.700280112044818,-65.47619047619048,-0.21008403361344538
4.575,IMU0,-0.029296875,0.7421875,-0.0625,-0.21008403361344538,-70.0280112044818,-0.42016806722689076
4.585,IMU0,-0.02490234375,0.751953125,-0.037109375,-0.21008403361344538,-66.80672268907563,-0.21008403361344538
4.595,IMU0,0.00439453125,0.73583984375,-0.02880859375,0.42016806722689076,-66.38655462184875,-0.42016806722689076
4.605,IMU0,-0.01708984375,0.73974609375,-0.05419921875,-0.1400560224089636,-71.1484593837535,-0.4901960784313726
4.615,IMU0,-0.02392578125,0.73046875,-0.05615234375,-1.5406162464985995,-67.50700280112045,-0.5602240896358543
4.625,IMU0,0.0029296875,0.74658203125,-0.0068359375,-2.2408963585434174,-63.72549019607843,-0.9803921568627452
4.635,IMU0,-0.0234375,0.73828125,-0.06103515625,-1.1204481792717087,-69.67787114845939,-1.2605042016806722
4.645,IMU0,0.0,0.73828125,-0.03759765625,-0.6302521008403361,-69.95798319327731,-1.6106442577030813
4.655,IMU0,-0.0087890625,0.71728515625,-0.02978515625,-1.050420168067227,-72.6890756302521,-1.7507002801120448
4.665,IMU0,-0.03125,0.73779296875,-0.0537109375,-2.450980392156863,-73.94957983193278,-2.5210084033613445
4.675,IMU0,-0.0087890625,0.72900390625,-0.02197265625,-1.6106442577030813,-73.8795518207283,-2.450980392156863
4.685,IMU0,-0.0263671875,0.71923828125,-0.04541015625,-1.7507002801120448,-76.40056022408965,-3.2212885154061626
4.695,IMU0,-0.017578125,0.7314453125,-0.06005859375,-2.030812324929972,-74.29971988795519,-2.380952380952381
4.705,IMU0,-0.00341796875,0.72216796875,-0.04150390625,-3.081232492997199,-71.9187675070028,-2.100840336134454
4.715,IMU0,-0.0517578125,0.73193359375,-0.03564453125,-3.011204481792717,-74.50980392156863,-1.9607843137254903
4.725,IMU0,-0.029296875,0.7197265625,-0.0380859375,-2.2408963585434174,-73.73949579831933,-2.170868347338936
4.735,IMU0,0.00439453125,0.70703125,-0.04833984375,-1.8207282913165266,-70.23809523809524,-1.3305322128851542
4.745,IMU0,-0.0537109375,0.712890625,-0.0517578125,-2.8711484593837535,-71.63865546218487,-0.6302521008403361
4.755,IMU0,-0.0263671875,0.71044921875,-0.0302734375,-1.9607843137254903,-67.64705882352942,-0.8403361344537815
4.765,IMU0,-0.0126953125,0.72509765625,-0.0166015625,-2.8711484593837535,-63.655462184873954,-0.350140056022409
4.775,IMU0,-0.03857421875,0.71484375,-0.0537109375,-4.69187675070028,-67.22689075630252,0.2801120448179272
4.785,IMU0,-0.03466796875,0.716796875,-0.02099609375,-3.2913165266106446,-67.57703081232494,1.050420168067227
4.795,IMU0,-0.00439453125,0.708984375,-0.03857421875,-2.5210084033613445,-68.55742296918768,1.1204481792717087
4.805,IMU0,-0.01611328125,0.69287109375,-0.0439453125,-2.5210084033613445,-67.71708683473389,2.3109243697478994
4.815,IMU0,-0.0283203125,0.70703125,-0.04150390625,-1.400560224089636,-69.32773109243698,2.030812324929972
4.825,IMU0,-0.00537109375,0.7001953125,-0.0341796875,-1.4705882352941178,-68.83753501400561,2.3109243697478994
4.835,IMU0,-0.04345703125,0.71142578125,-0.01904296875,-0.2801120448179272,-69.25770308123249,2.8711484593837535
4.845,IMU0,-0.01318359375,0.7041015625,-0.0458984375,-1.400560224089636,-65.26610644257704,2.73109243697479
4.855,IMU0,-0.0234375,0.7021484375,-0.04150390625,1.8907563025210086,-65.75630252100841,3.2212885154061626
4.865,IMU0,-0.0166015625,0.70068359375,-0.00439453125,1.680672268907563,-62.53501400560224,2.9411764705882355
4.875,IMU0,0.0009765625,0.69384765625,-0.04833984375,1.400560224089636,-62.254901960784316,2.5210084033613445
4.885,IMU0,-0.03369140625,0.69775390625,-0.03076171875,2.8711484593837535,-63.095238095238095,3.081232492997199
4.895,IMU0,-0.00927734375,0.7060546875,-0.02880859375,3.081232492997199,-63.235294117647065,2.2408963585434174
4.905,IMU0,-0.00439453125,0.6826171875,-0.0419921875,2.8711484593837535,-65.89635854341736,1.7507002801120448
4.915,IMU0,-0.0009765625,0.693359375,-0.03662109375,2.5210084033613445,-69.81792717086834,1.1204481792717087
4.925,IMU0,-0.0341796875,0.697265625,-0.01220703125,2.030812324929972,-71.1484593837535,0.700280112044818
4.935,IMU0,-0.0068359375,0.68017578125,-0.04541015625,2.170868347338936,-69.81792717086834,0.0
4.945,IMU0,0.0048828125,0.6875,-0.03173828125,2.73109243697479,-73.38935574229693,-0.4901960784313726
4.955,IMU0,-0.0048828125,0.68310546875,-0.03271484375,2.170868347338936,-76.19047619047619,-1.050420168067227
4.965,IMU0,-0.04296875,0.68212890625,-0.02685546875,2.170868347338936,-80.46218487394958,-1.1204481792717087
4.975,IMU0,-0.0224609375,0.6826171875,-0.025390625,1.4705882352941178,-77.6610644257703,-2.450980392156863
4.985,IMU0,-0.00390625,0.67431640625,-0.03662109375,0.350140056022409,-74.43977591036415,-2.801120448179272
4.995,IMU0,-0.0380859375,0.6728515625,-0.04296875,0.4901960784313726,-76.89075630252101,-2.6610644257703084
5.005,IMU0,-0.0126953125,0.6748046875,-0.021484375,-0.350140056022409,-72.05882352941177,-3.011204481792717
5.015,IMU0,-0.0126953125,0.67138671875,-0.03857421875,-1.400560224089636,-71.84873949579833,-3.2212885154061626
5.025,IMU0,-0.0224609375,0.67578125,-0.02294921875,-0.7703081232492998,-69.39775910364146,-2.801120448179272
5.035,IMU0,-0.00341796875,0.673828125,-0.01708984375,-1.3305322128851542,-71.49859943977592,-2.9411764705882355
5.045,IMU0,-0.00537109375,0.65966796875,-0.04296875,-1.8907563025210086,-72.3389355742297,-2.100840336134454
5.055,IMU0,-0.0302734375,0.6572265625,-0.0634765625,-3.361344537815126,-72.82913165266106,-1.8907563025210086
5.065,IMU0,-0.0224609375,0.6689453125,-0.044921875,-2.380952380952381,-73.66946778711485,-2.170868347338936
5.075,IMU0,-0.01611328125,0.66943359375,-0.0234375,-3.011204481792717,-72.6890756302521,-1.5406162464985995
5.085,IMU0,-0.0166015625,0.65234375,-0.03271484375,-3.2212885154061626,-71.42857142857143,-1.050420168067227
5.095,IMU0,-0.01220703125,0.6572265625,-0.0439453125,-3.2913165266106446,-74.01960784313725,-1.1204481792717087
5.105,IMU0,-0.0009765625,0.662109375,-0.01318359375,-3.2913165266106446,-73.38935574229693,0.0700280112044818
5.115,IMU0,-0.0498046875,0.66943359375,-0.052734375,-2.450980392156863,-75.21008403361346,0.0
5.125,IMU0,0.00146484375,0.65283203125,0.00634765625,-3.431372549019608,-72.6890756302521,0.5602240896358543
5.135,IMU0,-0.06103515625,0.662109375,-0.07177734375,-3.641456582633053,-74.64985994397759,0.7703081232492998
5.145,IMU0,-0.0205078125,0.65380859375,-0.02978515625,-2.9411764705882355,-71.63865546218487,1.1204481792717087
5.155,IMU0,-0.01513671875,0.6474609375,-0.03076171875,-1.6106442577030813,-73.03921568627452,1.2605042016806722
5.165,IMU0,-0.0458984375,0.662109375,-0.03955078125,-3.2913165266106446,-72.75910364145659,1.9607843137254903
5.175,IMU0,0.0029296875,0.65087890625,-0.04150390625,-2.2408963585434174,-70.16806722689076,2.5210084033613445
5.185,IMU0,-0.02978515625,0.642578125,-0.05419921875,-3.2913165266106446,-71.1484593837535,2.5910364145658265
5.195,IMU0,-0.013671875,0.65869140625,-0.03759765625,-2.450980392156863,-70.51820728291317,3.2913165266106446
5.205,IMU0,0.00048828125,0.64892578125,-0.033203125,-1.680672268907563,-71.9187675070028,2.8711484593837535
5.215,IMU0,-0.00732421875,0.6455078125,-0.03857421875,-1.680672268907563,-73.52941176470588,3.431372549019608
5.225,IMU0,-0.03271484375,0.64599609375,-0.03759765625,-1.6106442577030813,-72.05882352941177,2.801120448179272
5.235,IMU0,-0.009765625,0.64404296875,-0.02001953125,-1.3305322128851542,-70.93837535014006,2.170868347338936
5.245,IMU0,-0.03271484375,0.64501953125,-0.0546875,-1.8907563025210086,-72.6890756302521,1.8907563025210086
5.255,IMU0,-0.03076171875,0.64013671875,-0.0302734375,-1.8207282913165266,-73.38935574229693,1.5406162464985995
5.265,IMU0,-0.0029296875,0.6298828125,-0.041015625,-1.3305322128851542,-69.95798319327731,1.400560224089636
5.275,IMU0,-0.0322265625,0.64111328125,-0.0458984375,-1.680672268907563,-68.20728291316527,1.8207282913165266
5.285,IMU0,-0.015625,0.64208984375,-0.02880859375,-1.400560224089636,-69.74789915966387,0.6302521008403361
5.295,IMU0,-0.0009765625,0.6328125,-0.03515625,-2.380952380952381,-69.95798319327731,0.0
5.305,IMU0,-0.0341796875,0.64111328125,-0.037109375,-1.6106442577030813,-68.76750700280112,-0.4901960784313726
5.315,IMU0,-0.00634765625,0.625,-0.0419921875,-1.400560224089636,-67.99719887955182,-0.7703081232492998
5.325,IMU0,0.00537109375,0.63037109375,-0.0419921875,-2.170868347338936,-67.64705882352942,-1.400560224089636
5.335,IMU0,-0.0244140625,0.6298828125,-0.02197265625,-3.011204481792717,-69.74789915966387,-1.8207282913165266
5.345,IMU0,-0.01513671875,0.642578125,-0.037109375,-2.5910364145658265,-67.64705882352942,-1.8907563025210086
5.355,IMU0,-0.03271484375,0.6220703125,-0.03076171875,-2.380952380952381,-67.01680672268908,-2.5910364145658265
5.365,IMU0,-0.01123046875,0.62939453125,-0.044921875,-3.711484593837535,-65.68627450980392,-2.73109243697479
5.375,IMU0,0.00244140625,0.62158203125,-0.05810546875,-4.201680672268908,-64.84593837535014,-3.081232492997199
5.385,IMU0,-0.02197265625,0.626953125,-0.03271484375,-2.030812324929972,-66.45658263305323,-2.801120448179272
5.395,IMU0,-0.021484375,0.61669921875,-0.0224609375,-2.5910364145658265,-66.87675070028011,-2.8711484593837535
5.405,IMU0,-0.02392578125,0.62646484375,-0.0595703125,-3.5714285714285716,-66.1764705882353,-2.8711484593837535
5.415,IMU0,-0.02734375,0.6103515625,-0.00732421875,-1.6106442577030813,-64.49579831932773,-2.380952380952381
5.425,IMU0,-0.0087890625,0.626953125,-0.0126953125,-2.801120448179272,-63.72549019607843,-2.8711484593837535
5.435,IMU0,-0.02197265625,0.61767578125,-0.07373046875,-4.201680672268908,-61.694677871148464,-1.6106442577030813
5.445,IMU0,-0.0029296875,0.61083984375,0.009765625,-2.030812324929972,-60.7843137254902,-1.9607843137254903
5.455,IMU0,-0.02294921875,0.60009765625,-0.0537109375,-1.4705882352941178,-63.655462184873954,-1.680672268907563
5.465,IMU0,-0.0146484375,0.61669921875,-0.05712890625,-2.380952380952381,-59.2436974789916,-0.7703081232492998
5.475,IMU0,-0.046875,0.60595703125,-0.021484375,-1.7507002801120448,-60.504201680672274,-0.9103641456582633
5.485,IMU0,-0.01904296875,0.60986328125,-0.02734375,-2.030812324929972,-60.22408963585434,0.2801120448179272
5.495,IMU0,-0.00732421875,0.60986328125,-0.0244140625,-1.9607843137254903,-63.095238095238095,-0.0700280112044818
5.505,IMU0,-0.01953125,0.609375,-0.05029296875,-2.5210084033613445,-62.95518207282913,0.5602240896358543
5.515,IMU0,-0.03173828125,0.60302734375,-0.0205078125,-1.050420168067227,-60.22408963585434,0.9803921568627452
5.525,IMU0,-0.01953125,0.60009765625,-0.02880859375,-1.680672268907563,-60.08403361344538,0.700280112044818
5.535,IMU0,-0.01953125,0.6103515625,-0.06005859375,-0.350140056022409,-59.173669467787114,1.2605042016806722
5.545,IMU0,-0.01220703125,0.60400390625,-0.001953125,0.6302521008403361,-58.753501400560225,1.5406162464985995
5.555,IMU0,-0.015625,0.6123046875,-0.02587890625,-1.5406162464985995,-60.294117647058826,1.5406162464985995
5.565,IMU0,-0.00634765625,0.59423828125,-0.029296875,-0.0700280112044818,-61.06442577030813,2.2408963585434174
5.575,IMU0,-0.01904296875,0.591796875,-0.02685546875,1.4705882352941178,-62.675070028011206,1.9607843137254903
5.585,IMU0,-0.01318359375,0.59521484375,-0.0390625,0.9103641456582633,-60.504201680672274,2.2408963585434174
5.595,IMU0,-0.01611328125,0.59521484375,-0.03662109375,-0.6302521008403361,-61.274509803921575,2.801120448179272
5.605,IMU0,-0.01220703125,0.59228515625,-0.02734375,0.9803921568627452,-62.53501400560224,2.2408963585434174
5.615,IMU0,-0.04833984375,0.59228515625,-0.03857421875,1.8207282913165266,-64.70588235294117,1.9607843137254903
5.625,IMU0,-0.01025390625,0.59228515625,-0.0322265625,-0.2801120448179272,-62.53501400560224,2.380952380952381
5.635,IMU0,0.00244140625,0.59423828125,-0.01708984375,-0.1400560224089636,-65.61624649859944,1.6106442577030813
5.645,IMU0,-0.03857421875,0.5849609375,-0.05078125,-0.42016806722689076,-68.20728291316527,1.9607843137254903
5.655,IMU0,-0.0205078125,0.59033203125,-0.02587890625,-0.700280112044818,-66.10644257703082,1.9607843137254903
5.665,IMU0,0.0166015625,0.572265625,-0.0205078125,0.4901960784313726,-68.34733893557423,1.4705882352941178
5.675,IMU0,-0.06201171875,0.58642578125,-0.041015625,-0.350140056022409,-71.84873949579833,1.400560224089636
5.685,IMU0,0.03271484375,0.572265625,-0.01708984375,-1.4705882352941178,-68.4873949579832,1.050420168067227
5.695,IMU0,-0.0302734375,0.58154296875,-0.037109375,-2.030812324929972,-68.69747899159664,1.1904761904761905
5.705,IMU0,-0.0234375,0.587890625,-0.0390625,-2.170868347338936,-71.42857142857143,0.8403361344537815
5.715,IMU0,-0.03173828125,0.58154296875,-0.03662109375,-1.2605042016806722,-71.63865546218487,0.6302521008403361
5.725,IMU0,-0.00927734375,0.5810546875,-0.029296875,-1.2605042016806722,-70.09803921568627,0.0
5.735,IMU0,-0.00537109375,0.5791015625,-0.0263671875,-0.42016806722689076,-70.86834733893558,-0.0700280112044818
5.745,IMU0,-0.03369140625,0.57470703125,-0.025390625,-0.4901960784313726,-70.37815126050421,0.1400560224089636
5.755,IMU0,-0.0185546875,0.56640625,-0.02587890625,-1.9607843137254903,-68.13725490196079,-0.2801120448179272
5.765,IMU0,-0.001953125,0.572265625,-0.04638671875,-0.700280112044818,-68.90756302521008,-0.21008403361344538
5.775,IMU0,-0.00146484375,0.56689453125,-0.02001953125,-1.1904761904761905,-71.5686274509804,0.0700280112044818
5.785,IMU0,-0.02685546875,0.57666015625,-0.0390625,-1.1904761904761905,-74.43977591036415,-0.21008403361344538
5.795,IMU0,-0.0009765625,0.568359375,-0.013671875,-1.1904761904761905,-72.89915966386555,-0.2801120448179272
5.805,IMU0,-0.03369140625,0.5703125,-0.04541015625,-0.9103641456582633,-74.2296918767507,-0.4901960784313726
5.815,IMU0,-0.01025390625,0.56982421875,-0.02099609375,-3.151260504201681,-70.65826330532214,-0.350140056022409
5.825,IMU0,-0.033203125,0.57080078125,-0.0322265625,-2.2408963585434174,-69.53781512605042,-0.5602240896358543
5.835,IMU0,-0.0205078125,0.55859375,-0.02490234375,-1.5406162464985995,-69.67787114845939,-0.6302521008403361
5.845,IMU0,0.001953125,0.56982421875,-0.0556640625,-0.9803921568627452,-67.92717086834735,-0.5602240896358543
5.855,IMU0,-0.04931640625,0.55615234375,-0.01708984375,-0.350140056022409,-67.57703081232494,-0.5602240896358543
5.865,IMU0,-0.0048828125,0.5673828125,-0.03369140625,-1.8907563025210086,-67.15686274509804,-0.6302521008403361
5.875,IMU0,-0.037109375,0.55712890625,-0.0478515625,-0.700280112044818,-67.99719887955182,-0.350140056022409
5.885,IMU0,-0.0009765625,0.5546875,-0.00341796875,-1.4705882352941178,-66.03641456582633,-1.1204481792717087
5.895,IMU0,0.00146484375,0.55517578125,-0.04443359375,-2.3109243697478994,-65.26610644257704,-0.8403361344537815
5.905,IMU0,-0.02392578125,0.54541015625,-0.02099609375,-1.680672268907563,-67.43697478991596,-0.42016806722689076
5.915,IMU0,0.01025390625,0.54931640625,-0.03955078125,-1.050420168067227,-70.16806722689076,-1.5406162464985995
5.925,IMU0,-0.02099609375,0.5537109375,-0.0322265625,-1.1204481792717087,-69.95798319327731,-0.700280112044818
5.935,IMU0,0.0009765625,0.55078125,-0.0224609375,-1.3305322128851542,-70.86834733893558,-0.8403361344537815
5.945,IMU0,-0.01513671875,0.5498046875,-0.015625,-0.7703081232492998,-67.57703081232494,-0.5602240896358543
5.955,IMU0,-0.01513671875,0.55029296875,-0.03076171875,-0.6302521008403361,-70.0280112044818,-1.1204481792717087
5.965,IMU0,-0.00146484375,0.54150390625,-0.03125,-0.5602240896358543,-70.58823529411765,-0.9803921568627452
5.975,IMU0,-0.0380859375,0.54736328125,-0.02392578125,-0.9803921568627452,-70.7983193277311,-0.4901960784313726
5.985,IMU0,-0.01904296875,0.546875,-0.0458984375,-2.380952380952381,-68.20728291316527,-0.9103641456582633
5.995,IMU0,-0.01171875,0.53564453125,-0.00390625,-0.350140056022409,-69.39775910364146,-0.4901960784313726
6.005,IMU0,-0.01513671875,0.533203125,-0.02978515625,-0.350140056022409,-69.11764705882354,-0.2801120448179272
6.015,IMU0,-0.04443359375,0.54052734375,-0.03955078125,-0.6302521008403361,-69.6078431372549,-0.4901960784313726
6.025,IMU0,0.0244140625,0.5478515625,-0.01318359375,-1.2605042016806722,-68.69747899159664,-0.7703081232492998
6.035,IMU0,-0.04052734375,0.53466796875,-0.04443359375,-0.350140056022409,-68.27731092436976,0.1400560224089636
6.045,IMU0,-0.0068359375,0.5380859375,-0.04296875,0.21008403361344538,-67.15686274509804,-0.21008403361344538
6.055,IMU0,-0.01123046875,0.53759765625,-0.02197265625,-0.42016806722689076,-67.29691876750701,0.350140056022409
6.065,IMU0,-0.02587890625,0.53857421875,-0.00634765625,0.0,-68.13725490196079,0.4901960784313726
6.075,IMU0,-0.02490234375,0.537109375,-0.04150390625,-0.350140056022409,-67.64705882352942,-0.1400560224089636
6.085,IMU0,0.00244140625,0.529296875,-0.02392578125,0.1400560224089636,-64.70588235294117,0.8403361344537815
6.095,IMU0,-0.033203125,0.53759765625,-0.009765625,-0.5602240896358543,-66.38655462184875,0.350140056022409
6.105,IMU0,-0.0205078125,0.5322265625,-0.04736328125,0.0,-67.29691876750701,0.5602240896358543
6.115,IMU0,0.00244140625,0.52978515625,-0.0263671875,0.9803921568627452,-64.28571428571429,0.6302521008403361
6.125,IMU0,-0.041015625,0.525390625,-0.03955078125,0.9103641456582633,-67.71708683473389,0.5602240896358543
6.135,IMU0,0.00927734375,0.52490234375,-0.01904296875,-0.1400560224089636,-66.5266106442577,0.700280112044818
6.145,IMU0,-0.04931640625,0.5205078125,-0.0419921875,-0.350140056022409,-65.54621848739497,0.42016806722689076
6.155,IMU0,-0.0009765625,0.5341796875,-0.017578125,0.0700280112044818,-64.07563025210084,0.700280112044818
6.165,IMU0,-0.01416015625,0.52294921875,-0.0283203125,0.6302521008403361,-64.35574229691878,0.42016806722689076
6.175,IMU0,-0.0048828125,0.5205078125,-0.0234375,0.9803921568627452,-65.406162464986,-0.0700280112044818
6.185,IMU0,-0.01318359375,0.52392578125,-0.02392578125,-0.42016806722689076,-64.77591036414566,0.42016806722689076
6.195,IMU0,-0.029296875,0.529296875,-0.0390625,-0.8403361344537815,-68.55742296918768,0.21008403361344538
6.205,IMU0,0.00732421875,0.5146484375,-0.0185546875,-1.3305322128851542,-72.05882352941177,-0.1400560224089636
6.215,IMU0,-0.017578125,0.515625,-0.0146484375,-1.4705882352941178,-73.8795518207283,0.21008403361344538
6.225,IMU0,-0.0126953125,0.52001953125,-0.03466796875,-1.7507002801120448,-75.0,-0.42016806722689076
6.235,IMU0,0.01611328125,0.51416015625,-0.013671875,-1.1904761904761905,-76.61064425770309,-0.2801120448179272
6.245,IMU0,-0.0439453125,0.50634765625,-0.03857421875,-1.3305322128851542,-79.97198879551821,-0.0700280112044818
6.255,IMU0,-0.00927734375,0.51708984375,-0.0322265625,0.0,-77.87114845938376,-0.4901960784313726
6.265,IMU0,-0.013671875,0.51220703125,-0.0244140625,0.8403361344537815,-75.84033613445378,-0.350140056022409
6.275,IMU0,-0.0380859375,0.50830078125,-0.02197265625,-1.4705882352941178,-77.6610644257703,-0.42016806722689076
6.285,IMU0,-0.0009765625,0.5087890625,-0.03125,-0.8403361344537815,-77.59103641456583,-0.9103641456582633
6.295,IMU0,-0.0224609375,0.517578125,-0.01806640625,0.1400560224089636,-77.6610644257703,-0.350140056022409
6.305,IMU0,-0.01611328125,0.5029296875,-0.0166015625,0.21008403361344538,-77.52100840336135,-0.4901960784313726
6.315,IMU0,-0.00927734375,0.5126953125,-0.025390625,0.2801120448179272,-74.50980392156863,-0.700280112044818
6.325,IMU0,-0.01806640625,0.50830078125,-0.02099609375,0.21008403361344538,-75.77030812324931,-0.2801120448179272
6.335,IMU0,-0.0087890625,0.50146484375,-0.0341796875,0.350140056022409,-77.45098039215686,-0.700280112044818
6.345,IMU0,-0.00244140625,0.50439453125,-0.02001953125,-0.350140056022409,-77.59103641456583,-0.21008403361344538
6.355,IMU0,-0.02880859375,0.505859375,-0.029296875,-1.3305322128851542,-79.55182072829132,-0.1400560224089636
6.365,IMU0,-0.0126953125,0.50244140625,-0.0234375,-0.21008403361344538,-78.64145658263305,-0.5602240896358543
6.375,IMU0,-0.03564453125,0.51171875,-0.037109375,0.350140056022409,-76.75070028011204,0.21008403361344538
6.385,IMU0,-0.02490234375,0.49462890625,-0.029296875,0.700280112044818,-75.35014005602241,-0.21008403361344538
6.395,IMU0,-0.0517578125,0.50048828125,-0.0166015625,0.8403361344537815,-73.73949579831933,-0.1400560224089636
6.405,IMU0,0.0107421875,0.5009765625,-0.0478515625,-0.2801120448179272,-73.109243697479,-0.5602240896358543
6.415,IMU0,-0.0107421875,0.494140625,-0.0078125,1.680672268907563,-75.4201680672269,0.6302521008403361
6.425,IMU0,-0.02587890625,0.49658203125,-0.0107421875,-0.2801120448179272,-76.5406162464986,0.2801120448179272
6.435,IMU0,0.00244140625,0.50048828125,-0.0322265625,2.030812324929972,-75.07002801120449,-0.2801120448179272
6.445,IMU0,-0.0322265625,0.4892578125,-0.009765625,2.380952380952381,-74.50980392156863,0.4901960784313726
6.455,IMU0,-0.02685546875,0.50439453125,-0.0283203125,0.0,-72.75910364145659,-0.21008403361344538
6.465,IMU0,0.0009765625,0.48681640625,-0.03076171875,1.8907563025210086,-70.7983193277311,0.1400560224089636
6.475,IMU0,-0.03369140625,0.4853515625,0.0078125,0.0700280112044818,-70.23809523809524,0.5602240896358543
6.485,IMU0,-0.00244140625,0.4873046875,-0.03271484375,-0.42016806722689076,-69.6078431372549,-0.0700280112044818
6.495,IMU0,-0.00830078125,0.4921875,-0.0078125,0.42016806722689076,-68.62745098039215,0.6302521008403361
6.505,IMU0,-0.0302734375,0.47509765625,-0.02099609375,-0.21008403361344538,-68.55742296918768,0.2801120448179272
6.515,IMU0,-0.0244140625,0.49267578125,-0.04248046875,-0.9103641456582633,-66.73669467787116,0.0
6.525,IMU0,-0.0107421875,0.48291015625,-0.0263671875,-1.3305322128851542,-64.77591036414566,0.6302521008403361
6.535,IMU0,-0.02783203125,0.48291015625,-0.03076171875,-0.2801120448179272,-67.22689075630252,0.0700280112044818
6.545,IMU0,0.009765625,0.48193359375,-0.0185546875,-0.42016806722689076,-67.29691876750701,0.42016806722689076
6.555,IMU0,-0.02197265625,0.47705078125,-0.0205078125,0.42016806722689076,-68.20728291316527,0.42016806722689076
6.565,IMU0,-0.01513671875,0.48095703125,-0.02978515625,-0.6302521008403361,-68.0672268907563,0.0
6.575,IMU0,-0.013671875,0.486328125,-0.02490234375,-0.9803921568627452,-67.08683473389355,0.21008403361344538
6.585,IMU0,-0.03466796875,0.474609375,-0.009765625,-1.3305322128851542,-66.5266106442577,0.2801120448179272
6.595,IMU0,-0.0029296875,0.478515625,-0.0478515625,-1.1204481792717087,-65.12605042016807,-0.1400560224089636
6.605,IMU0,-0.00927734375,0.474609375,-0.009765625,-0.6302521008403361,-67.15686274509804,0.1400560224089636
6.615,IMU0,-0.02783203125,0.474609375,-0.0048828125,-0.4901960784313726,-66.5266106442577,0.350140056022409
6.625,IMU0,-0.00537109375,0.4736328125,-0.0419921875,-0.5602240896358543,-66.24649859943978,-0.0700280112044818
6.635,IMU0,-0.0029296875,0.47265625,-0.0224609375,0.2801120448179272,-63.235294117647065,0.4901960784313726
6.645,IMU0,-0.021484375,0.4658203125,-0.01220703125,-1.400560224089636,-64.9859943977591,0.4901960784313726
6.655,IMU0,-0.00732421875,0.46923828125,-0.037109375,-0.9803921568627452,-67.22689075630252,0.0700280112044818
6.665,IMU0,-0.01416015625,0.470703125,-0.01611328125,-0.21008403361344538,-68.4873949579832,0.5602240896358543
6.675,IMU0,-0.03759765625,0.4716796875,-0.03125,-0.1400560224089636,-69.04761904761905,0.350140056022409
6.685,IMU0,-0.02001953125,0.474609375,-0.02783203125,-0.2801120448179272,-69.11764705882354,0.0700280112044818
6.695,IMU0,-0.0126953125,0.46533203125,-0.01171875,-1.3305322128851542,-67.50700280112045,0.21008403361344538
6.705,IMU0,-0.02197265625,0.4736328125,-0.029296875,-1.9607843137254903,-68.83753501400561,0.1400560224089636
6.715,IMU0,-0.00244140625,0.46923828125,-0.0146484375,-0.21008403361344538,-68.62745098039215,-0.2801120448179272
6.725,IMU0,-0.0048828125,0.455078125,-0.01806640625,-1.4705882352941178,-67.64705882352942,0.0
6.735,IMU0,-0.01708984375,0.4609375,-0.0185546875,-1.1904761904761905,-70.44817927170868,0.0
6.745,IMU0,0.0107421875,0.45849609375,-0.03125,-0.4901960784313726,-68.55742296918768,-0.2801120448179272
6.755,IMU0,-0.0390625,0.4609375,-0.01220703125,0.350140056022409,-69.46778711484595,-0.2801120448179272
6.765,IMU0,-0.013671875,0.46142578125,-0.015625,-1.2605042016806722,-67.15686274509804,-0.350140056022409
6.775,IMU0,-0.00439453125,0.455078125,-0.03076171875,0.42016806722689076,-67.92717086834735,-0.4901960784313726
6.785,IMU0,-0.0302734375,0.45751953125,-0.01611328125,-0.350140056022409,-67.78711484593838,-0.4901960784313726
6.795,IMU0,0.00537109375,0.4638671875,-0.0263671875,-0.350140056022409,-69.95798319327731,-0.6302521008403361
6.805,IMU0,-0.0361328125,0.46240234375,-0.021484375,0.1400560224089636,-71.98879551820728,-0.2801120448179272
6.815,IMU0,-0.01171875,0.4521484375,-0.02880859375,0.1400560224089636,-72.12885154061625,-0.42016806722689076
6.825,IMU0,-0.01708984375,0.4560546875,-0.01025390625,0.2801120448179272,-72.96918767507003,-0.5602240896358543
6.835,IMU0,-0.00927734375,0.4501953125,-0.02001953125,-0.350140056022409,-72.6890756302521,-0.4901960784313726
6.845,IMU0,-0.01416015625,0.45458984375,-0.029296875,-0.21008403361344538,-72.54901960784314,-0.4901960784313726
6.855,IMU0,-0.05029296875,0.447265625,-0.00927734375,0.2801120448179272,-72.54901960784314,-0.2801120448179272
6.865,IMU0,0.0048828125,0.45458984375,-0.02880859375,-0.5602240896358543,-69.11764705882354,-0.6302521008403361
6.875,IMU0,-0.02587890625,0.45361328125,-0.005859375,0.8403361344537815,-69.67787114845939,-0.1400560224089636
6.885,IMU0,0.005859375,0.44287109375,-0.02197265625,0.0,-69.32773109243698,-0.6302521008403361
6.895,IMU0,-0.00341796875,0.45556640625,-0.02001953125,0.1400560224089636,-71.9187675070028,-0.0700280112044818
6.905,IMU0,-0.0244140625,0.4423828125,-0.01123046875,0.0700280112044818,-74.08963585434174,0.1400560224089636
6.915,IMU0,-0.005859375,0.443359375,-0.021484375,-0.0700280112044818,-73.4593837535014,-0.350140056022409
6.925,IMU0,-0.029296875,0.447265625,-0.02294921875,0.350140056022409,-72.05882352941177,0.2801120448179272
6.935,IMU0,-0.01708984375,0.44873046875,-0.0146484375,0.0700280112044818,-71.98879551820728,0.2801120448179272
6.945,IMU0,-0.0166015625,0.43896484375,-0.04296875,0.42016806722689076,-72.75910364145659,0.0700280112044818
6.955,IMU0,-0.0234375,0.44970703125,-0.00146484375,-0.21008403361344538,-69.88795518207283,0.6302521008403361
6.965,IMU0,-0.02734375,0.43798828125,-0.017578125,0.1400560224089636,-72.26890756302521,0.350140056022409
6.975,IMU0,-0.00341796875,0.44189453125,-0.01513671875,-0.6302521008403361,-70.44817927170868,0.42016806722689076
6.985,IMU0,-0.0419921875,0.44384765625,-0.0302734375,-0.350140056022409,-71.42857142857143,0.9803921568627452
6.995,IMU0,0.0068359375,0.43798828125,-0.01708984375,-0.21008403361344538,-70.16806722689076,0.5602240896358543
7.005,IMU0,-0.0107421875,0.4345703125,-0.01171875,-0.21008403361344538,-72.3389355742297,1.050420168067227
7.015,IMU0,-0.0146484375,0.43896484375,-0.02001953125,-0.700280112044818,-71.9187675070028,1.5406162464985995
7.025,IMU0,-0.02099609375,0.4296875,-0.025390625,0.2801120448179272,-72.61904761904762,1.3305322128851542
7.035,IMU0,-0.029296875,0.43359375,-0.01904296875,-1.3305322128851542,-69.18767507002802,1.5406162464985995
7.045,IMU0,-0.04296875,0.43896484375,-0.04736328125,-0.42016806722689076,-67.50700280112045,1.6106442577030813
7.055,IMU0,-0.01904296875,0.42919921875,-0.01123046875,0.350140056022409,-65.96638655462185,1.3305322128851542
7.065,IMU0,-0.0029296875,0.4267578125,-0.015625,-0.0700280112044818,-65.33613445378151,1.6106442577030813
7.075,IMU0,-0.025390625,0.43994140625,-0.03759765625,-0.7703081232492998,-64.49579831932773,1.5406162464985995
7.085,IMU0,0.005859375,0.4306640625,0.005859375,0.700280112044818,-66.24649859943978,1.050420168067227
7.095,IMU0,-0.0087890625,0.43017578125,-0.03564453125,-0.0700280112044818,-65.82633053221289,0.9803921568627452
7.105,IMU0,-0.02197265625,0.4267578125,-0.01318359375,0.350140056022409,-66.73669467787116,1.1904761904761905
7.115,IMU0,-0.005859375,0.423828125,-0.00244140625,0.8403361344537815,-69.32773109243698,0.2801120448179272
7.125,IMU0,-0.03173828125,0.42236328125,-0.02587890625,0.9103641456582633,-69.88795518207283,0.6302521008403361
7.135,IMU0,-0.0322265625,0.4345703125,-0.02490234375,-0.350140056022409,-67.43697478991596,0.2801120448179272
7.145,IMU0,-0.001953125,0.421875,-0.00244140625,0.6302521008403361,-67.78711484593838,-0.42016806722689076
7.155,IMU0,-0.0029296875,0.42724609375,-0.0224609375,0.350140056022409,-68.27731092436976,-0.21008403361344538
7.165,IMU0,-0.03515625,0.419921875,-0.017578125,0.700280112044818,-69.25770308123249,-0.2801120448179272
7.175,IMU0,0.015625,0.42431640625,-0.0185546875,0.21008403361344538,-70.09803921568627,-0.9103641456582633
7.185,IMU0,-0.021484375,0.41552734375,-0.0205078125,0.2801120448179272,-72.3389355742297,-0.0700280112044818
7.195,IMU0,-0.02099609375,0.41650390625,-0.0107421875,-0.42016806722689076,-73.80952380952381,-0.7703081232492998
7.205,IMU0,-0.00048828125,0.42138671875,-0.029296875,-0.0700280112044818,-73.38935574229693,-1.1204481792717087
7.215,IMU0,-0.0419921875,0.42041015625,-0.009765625,0.21008403361344538,-71.70868347338936,-0.42016806722689076
7.225,IMU0,0.001953125,0.41064453125,-0.02099609375,-0.8403361344537815,-69.6078431372549,-1.1904761904761905
7.235,IMU0,-0.013671875,0.421875,-0.037109375,-1.7507002801120448,-70.44817927170868,-0.8403361344537815
7.245,IMU0,-0.01708984375,0.41259765625,-0.00634765625,-0.8403361344537815,-70.0280112044818,-0.5602240896358543
7.255,IMU0,-0.01220703125,0.41162109375,-0.001953125,-0.350140056022409,-71.35854341736695,-0.9103641456582633
7.265,IMU0,-0.02294921875,0.41357421875,-0.0380859375,-0.350140056022409,-71.35854341736695,-0.7703081232492998
7.275,IMU0,-0.0400390625,0.4189453125,-0.02490234375,0.4901960784313726,-71.21848739495799,-0.7703081232492998
7.285,IMU0,0.01904296875,0.41357421875,-0.00146484375,-0.21008403361344538,-68.76750700280112,-0.6302521008403361
7.295,IMU0,-0.04150390625,0.404296875,-0.02783203125,0.0,-71.28851540616247,-0.2801120448179272
7.305,IMU0,-0.0029296875,0.40966796875,-0.01611328125,-0.350140056022409,-67.99719887955182,-0.5602240896358543
7.315,IMU0,-0.02880859375,0.4072265625,-0.03662109375,-0.21008403361344538,-68.90756302521008,0.0700280112044818
7.325,IMU0,0.00390625,0.41552734375,-0.0048828125,0.8403361344537815,-69.04761904761905,-0.1400560224089636
7.335,IMU0,-0.0302734375,0.39501953125,-0.01025390625,0.0700280112044818,-70.16806722689076,0.5602240896358543
7.345,IMU0,-0.01708984375,0.41455078125,-0.03125,-0.4901960784313726,-69.74789915966387,0.0700280112044818
7.355,IMU0,-0.015625,0.41162109375,-0.00048828125,0.700280112044818,-67.85714285714286,0.6302521008403361
7.365,IMU0,-0.01220703125,0.3955078125,-0.01318359375,0.700280112044818,-69.04761904761905,0.2801120448179272
7.375,IMU0,-0.0283203125,0.41259765625,-0.04248046875,-0.21008403361344538,-69.11764705882354,0.350140056022409
7.385,IMU0,-0.015625,0.40185546875,0.00390625,1.1904761904761905,-66.31652661064426,0.700280112044818
7.395,IMU0,-0.01513671875,0.40869140625,-0.0244140625,0.21008403361344538,-68.0672268907563,0.4901960784313726
7.405,IMU0,-0.01025390625,0.3935546875,-0.02001953125,0.42016806722689076,-67.64705882352942,1.2605042016806722
7.415,IMU0,-0.02490234375,0.39501953125,-0.017578125,1.3305322128851542,-69.81792717086834,0.700280112044818
7.425,IMU0,0.0029296875,0.3935546875,-0.01220703125,0.0,-71.00840336134453,1.1204481792717087
7.435,IMU0,-0.025390625,0.39990234375,-0.0205078125,-0.9803921568627452,-73.59943977591037,1.1204481792717087
7.445,IMU0,0.013671875,0.39306640625,-0.0146484375,-0.42016806722689076,-73.66946778711485,0.7703081232492998
7.455,IMU0,-0.029296875,0.3935546875,-0.025390625,-1.4705882352941178,-75.28011204481793,1.4705882352941178
7.465,IMU0,-0.02490234375,0.396484375,-0.01611328125,0.350140056022409,-75.35014005602241,0.8403361344537815
7.475,IMU0,0.0029296875,0.3974609375,-0.00732421875,1.050420168067227,-75.35014005602241,0.9803921568627452
7.485,IMU0,-0.04150390625,0.39208984375,-0.01806640625,-0.350140056022409,-73.24929971988796,1.1904761904761905
7.495,IMU0,0.00048828125,0.39697265625,-0.02587890625,-0.1400560224089636,-71.1484593837535,0.5602240896358543
7.505,IMU0,-0.0146484375,0.388671875,-0.00341796875,0.6302521008403361,-73.31932773109244,1.3305322128851542
7.515,IMU0,-0.01220703125,0.3857421875,-0.02880859375,0.42016806722689076,-74.57983193277312,0.4901960784313726
7.525,IMU0,-0.02490234375,0.3896484375,-0.00634765625,0.5602240896358543,-75.35014005602241,0.350140056022409
7.535,IMU0,0.0068359375,0.38525390625,-0.0009765625,0.8403361344537815,-73.17927170868347,0.42016806722689076
7.545,IMU0,-0.0322265625,0.3935546875,-0.0361328125,0.8403361344537815,-72.61904761904762,0.350140056022409
7.555,IMU0,-0.02392578125,0.3916015625,-0.01953125,2.450980392156863,-71.00840336134453,0.42016806722689076
7.565,IMU0,-0.01513671875,0.38037109375,-0.00341796875,0.2801120448179272,-68.76750700280112,0.21008403361344538
7.575,IMU0,-0.0048828125,0.3828125,-0.03955078125,1.3305322128851542,-67.22689075630252,0.2801120448179272
7.585,IMU0,-0.02978515625,0.39013671875,-0.005859375,1.1204481792717087,-68.62745098039215,0.4901960784313726
7.595,IMU0,0.005859375,0.38525390625,-0.00048828125,-0.5602240896358543,-67.71708683473389,0.21008403361344538
7.605,IMU0,-0.04052734375,0.3876953125,-0.03662109375,0.42016806722689076,-68.41736694677871,0.6302521008403361
7.615,IMU0,-0.00537109375,0.37841796875,0.00439453125,2.380952380952381,-67.29691876750701,0.2801120448179272
7.625,IMU0,0.01025390625,0.37890625,-0.02001953125,0.6302521008403361,-67.22689075630252,0.1400560224089636
7.635,IMU0,-0.0380859375,0.3876953125,-0.02880859375,-0.21008403361344538,-70.0280112044818,0.42016806722689076
7.645,IMU0,-0.0029296875,0.375,0.00048828125,1.3305322128851542,-69.95798319327731,0.0
7.655,IMU0,-0.0244140625,0.375,-0.0234375,0.1400560224089636,-70.23809523809524,0.21008403361344538
7.665,IMU0,-0.0126953125,0.384765625,-0.02392578125,1.4705882352941178,-69.95798319327731,0.1400560224089636
7.675,IMU0,-0.0078125,0.3759765625,-0.0009765625,0.4901960784313726,-71.5686274509804,0.1400560224089636
7.685,IMU0,-0.00634765625,0.3818359375,-0.02783203125,0.5602240896358543,-73.80952380952381,0.2801120448179272
7.695,IMU0,-0.01806640625,0.3740234375,-0.02099609375,0.7703081232492998,-74.36974789915966,0.350140056022409
7.705,IMU0,-0.02392578125,0.36962890625,-0.015625,1.2605042016806722,-73.59943977591037,0.2801120448179272
7.715,IMU0,-0.00634765625,0.3828125,-0.02490234375,0.9103641456582633,-70.58823529411765,0.0
7.725,IMU0,-0.03076171875,0.3740234375,-0.013671875,0.5602240896358543,-71.5686274509804,0.7703081232492998
7.735,IMU0,-0.005859375,0.3642578125,0.00390625,0.9803921568627452,-73.31932773109244,-0.2801120448179272
7.745,IMU0,0.021484375,0.37646484375,-0.0029296875,0.21008403361344538,-73.38935574229693,-0.0700280112044818
7.755,IMU0,-0.037109375,0.36865234375,-0.01171875,-0.1400560224089636,-76.89075630252101,0.4901960784313726
7.765,IMU0,0.00927734375,0.3740234375,-0.03076171875,-0.700280112044818,-75.49019607843138,-0.5602240896358543
7.775,IMU0,-0.0107421875,0.3642578125,-0.0009765625,0.8403361344537815,-76.33053221288516,0.42016806722689076
7.785,IMU0,0.00341796875,0.3720703125,-0.02783203125,1.1204481792717087,-77.03081232492998,-0.21008403361344538
7.795,IMU0,-0.04638671875,0.3671875,-0.01318359375,1.050420168067227,-77.17086834733894,0.42016806722689076
7.805,IMU0,0.00341796875,0.37451171875,-0.00927734375,-0.9103641456582633,-74.50980392156863,-0.1400560224089636
7.815,IMU0,-0.021484375,0.3642578125,-0.0107421875,-0.7703081232492998,-76.12044817927172,0.21008403361344538
7.825,IMU0,-0.0146484375,0.369140625,-0.00830078125,0.0,-74.78991596638656,0.21008403361344538
7.835,IMU0,-0.00927734375,0.36474609375,-0.02783203125,0.0,-76.19047619047619,0.0
7.845,IMU0,-0.0185546875,0.36279296875,-0.001953125,0.7703081232492998,-75.07002801120449,0.2801120448179272
7.855,IMU0,-0.00634765625,0.3623046875,-0.0107421875,1.7507002801120448,-73.80952380952381,0.21008403361344538
7.865,IMU0,-0.0205078125,0.3642578125,-0.025390625,0.700280112044818,-75.07002801120449,0.1400560224089636
7.875,IMU0,-0.00927734375,0.36083984375,-0.0078125,1.3305322128851542,-74.78991596638656,0.21008403361344538
7.885,IMU0,-0.0302734375,0.365234375,-0.02099609375,0.7703081232492998,-75.07002801120449,0.350140056022409
7.895,IMU0,-0.02197265625,0.35498046875,-0.01318359375,1.4705882352941178,-75.70028011204482,0.1400560224089636
7.905,IMU0,0.0029296875,0.35791015625,0.00341796875,1.1204481792717087,-74.85994397759104,0.21008403361344538
7.915,IMU0,-0.0419921875,0.3564453125,-0.02197265625,0.6302521008403361,-74.43977591036415,0.7703081232492998
7.925,IMU0,-0.00732421875,0.35595703125,-0.0107421875,1.3305322128851542,-71.35854341736695,0.21008403361344538
7.935,IMU0,-0.00146484375,0.36279296875,0.0,0.700280112044818,-71.49859943977592,0.700280112044818
7.945,IMU0,-0.0166015625,0.36181640625,-0.01904296875,-0.1400560224089636,-71.9187675070028,0.7703081232492998
7.955,IMU0,-0.01025390625,0.35791015625,-0.0224609375,0.350140056022409,-74.2296918767507,0.350140056022409
7.965,IMU0,-0.01171875,0.353515625,-0.0048828125,1.1904761904761905,-73.80952380952381,0.5602240896358543
7.975,IMU0,-0.0361328125,0.3623046875,-0.0263671875,0.0,-73.66946778711485,0.42016806722689076
7.985,IMU0,0.01904296875,0.357421875,0.00146484375,0.700280112044818,-73.80952380952381,0.350140056022409
7.995,IMU0,-0.0244140625,0.35009765625,-0.02001953125,1.5406162464985995,-75.07002801120449,0.6302521008403361
8.005,IMU0,-0.029296875,0.3544921875,-0.01171875,0.7703081232492998,-75.07002801120449,0.42016806722689076
8.015,IMU0,0.01318359375,0.35205078125,-0.0068359375,0.4901960784313726,-73.8795518207283,0.5602240896358543
8.025,IMU0,-0.03076171875,0.35302734375,-0.02392578125,0.21008403361344538,-77.6610644257703,0.700280112044818
8.035,IMU0,-0.001953125,0.34326171875,-0.00244140625,1.4705882352941178,-77.03081232492998,0.2801120448179272
8.045,IMU0,-0.02001953125,0.3486328125,-0.025390625,0.9103641456582633,-77.6610644257703,0.350140056022409
8.055,IMU0,-0.0068359375,0.3603515625,-0.02197265625,1.050420168067227,-78.22128851540617,0.1400560224089636
8.065,IMU0,-0.02587890625,0.34033203125,0.00390625,1.7507002801120448,-78.99159663865547,0.0
8.075,IMU0,-0.01953125,0.3447265625,-0.01220703125,0.9803921568627452,-77.59103641456583,0.350140056022409
8.085,IMU0,-0.03125,0.35595703125,-0.03271484375,1.6106442577030813,-75.98039215686275,-0.1400560224089636
8.095,IMU0,-0.00830078125,0.345703125,0.00390625,1.680672268907563,-72.89915966386555,-0.1400560224089636
8.105,IMU0,-0.015625,0.3427734375,-0.00830078125,0.9103641456582633,-73.31932773109244,-0.4901960784313726
8.115,IMU0,0.0107421875,0.34326171875,-0.0126953125,1.6106442577030813,-73.109243697479,-0.4901960784313726
8.125,IMU0,-0.03662109375,0.34130859375,-0.00439453125,1.2605042016806722,-72.61904761904762,-0.42016806722689076
8.135,IMU0,-0.0205078125,0.3525390625,-0.02294921875,0.21008403361344538,-70.65826330532214,-0.8403361344537815
8.145,IMU0,-0.01220703125,0.33447265625,-0.01123046875,1.1904761904761905,-69.53781512605042,-0.6302521008403361
8.155,IMU0,-0.01708984375,0.3388671875,-0.01025390625,1.1904761904761905,-70.65826330532214,-0.700280112044818
8.165,IMU0,0.00048828125,0.3388671875,-0.0166015625,1.9607843137254903,-69.39775910364146,-0.7703081232492998
8.175,IMU0,-0.0283203125,0.34521484375,-0.0126953125,0.9103641456582633,-70.65826330532214,-0.5602240896358543
8.185,IMU0,-0.0029296875,0.34521484375,-0.01904296875,1.3305322128851542,-69.88795518207283,-0.9803921568627452
8.195,IMU0,-0.00732421875,0.34326171875,0.005859375,0.42016806722689076,-70.58823529411765,-0.5602240896358543
8.205,IMU0,-0.0322265625,0.33203125,-0.0234375,0.4901960784313726,-73.31932773109244,-0.5602240896358543
8.215,IMU0,0.00830078125,0.33349609375,-0.0185546875,1.1204481792717087,-71.00840336134453,-0.8403361344537815
8.225,IMU0,-0.03271484375,0.33935546875,0.0,1.7507002801120448,-71.1484593837535,-0.350140056022409
8.235,IMU0,0.00244140625,0.33837890625,-0.00390625,0.9103641456582633,-71.00840336134453,-0.7703081232492998
8.245,IMU0,-0.03662109375,0.32080078125,-0.01123046875,0.2801120448179272,-72.05882352941177,-0.350140056022409
8.255,IMU0,0.00732421875,0.3330078125,-0.01708984375,0.0,-71.42857142857143,-0.7703081232492998
8.265,IMU0,-0.0146484375,0.3466796875,-0.01953125,0.8403361344537815,-71.42857142857143,-0.0700280112044818
8.275,IMU0,-0.02490234375,0.3251953125,0.0068359375,1.9607843137254903,-71.9187675070028,-0.21008403361344538
8.285,IMU0,-0.00048828125,0.3349609375,-0.0234375,1.1204481792717087,-71.77871148459384,-0.6302521008403361
8.295,IMU0,-0.02490234375,0.32958984375,-0.00927734375,1.1904761904761905,-71.49859943977592,-0.0700280112044818
8.305,IMU0,0.01708984375,0.3310546875,-0.00634765625,-0.42016806722689076,-70.93837535014006,-0.42016806722689076
8.315,IMU0,0.0009765625,0.33056640625,-0.01220703125,-0.0700280112044818,-73.17927170868347,-0.350140056022409
8.325,IMU0,-0.03271484375,0.326171875,-0.0029296875,1.1904761904761905,-76.40056022408965,0.0700280112044818
8.335,IMU0,-0.0068359375,0.328125,-0.01416015625,0.0,-75.35014005602241,-0.6302521008403361
8.345,IMU0,-0.02392578125,0.32958984375,-0.0283203125,0.21008403361344538,-73.66946778711485,0.0700280112044818
8.355,IMU0,-0.0107421875,0.32177734375,0.00634765625,0.1400560224089636,-72.47899159663866,0.0
8.365,IMU0,-0.0048828125,0.32763671875,-0.02197265625,0.42016806722689076,-75.91036414565826,-0.4901960784313726
8.375,IMU0,-0.00927734375,0.3251953125,-0.02001953125,0.6302521008403361,-76.5406162464986,0.2801120448179272
8.385,IMU0,-0.03173828125,0.32421875,-0.01904296875,0.700280112044818,-78.71148459383754,0.1400560224089636
8.395,IMU0,-0.0029296875,0.328125,-0.0087890625,0.0,-78.99159663865547,-0.1400560224089636
8.405,IMU0,-0.0224609375,0.3212890625,-0.0009765625,1.2605042016806722,-79.6218487394958,0.2801120448179272
8.415,IMU0,-0.0009765625,0.322265625,-0.01904296875,0.5602240896358543,-80.60224089635855,-0.21008403361344538
8.425,IMU0,-0.0068359375,0.32080078125,-0.009765625,0.0700280112044818,-82.42296918767508,0.0700280112044818
8.435,IMU0,-0.0361328125,0.31787109375,0.0068359375,0.700280112044818,-82.07282913165267,0.4901960784313726
8.445,IMU0,-0.02099609375,0.3251953125,-0.0302734375,-0.6302521008403361,-79.55182072829132,0.0
8.455,IMU0,-0.013671875,0.31787109375,0.00439453125,0.0,-76.47058823529412,0.350140056022409
8.465,IMU0,-0.02099609375,0.3203125,-0.0146484375,0.2801120448179272,-78.36134453781513,0.21008403361344538
8.475,IMU0,-0.01806640625,0.32763671875,-0.03173828125,0.42016806722689076,-78.8515406162465,0.1400560224089636
8.485,IMU0,0.00390625,0.31689453125,0.00439453125,1.2605042016806722,-77.6610644257703,0.350140056022409
8.495,IMU0,-0.033203125,0.31005859375,-0.0146484375,1.1904761904761905,-80.11204481792717,0.6302521008403361
8.505,IMU0,0.00634765625,0.32177734375,-0.01025390625,-1.050420168067227,-78.64145658263305,0.6302521008403361
8.515,IMU0,-0.0205078125,0.3125,-0.00537109375,0.6302521008403361,-80.32212885154063,0.8403361344537815
8.525,IMU0,-0.00537109375,0.31640625,-0.01513671875,-0.0700280112044818,-80.25210084033614,0.8403361344537815
8.535,IMU0,-0.0224609375,0.31640625,-0.0263671875,0.1400560224089636,-79.97198879551821,1.1204481792717087
8.545,IMU0,-0.015625,0.31884765625,0.01123046875,0.21008403361344538,-79.90196078431373,0.9803921568627452
8.555,IMU0,-0.01220703125,0.314453125,-0.029296875,0.21008403361344538,-78.5014005602241,1.1204481792717087
8.565,IMU0,-0.0185546875,0.310546875,0.001953125,1.1204481792717087,-78.64145658263305,1.2605042016806722
8.575,IMU0,-0.00390625,0.31201171875,-0.00244140625,-0.9103641456582633,-80.25210084033614,1.050420168067227
8.585,IMU0,-0.0166015625,0.3076171875,-0.03369140625,-0.8403361344537815,-79.83193277310924,1.400560224089636
8.595,IMU0,-0.02197265625,0.3095703125,-0.00048828125,-0.6302521008403361,-77.94117647058823,1.1904761904761905
8.605,IMU0,-0.01708984375,0.3154296875,-0.0087890625,0.0700280112044818,-77.24089635854342,1.050420168067227
8.615,IMU0,-0.013671875,0.30859375,-0.02880859375,-0.4901960784313726,-75.56022408963585,1.2605042016806722
8.625,IMU0,-0.0224609375,0.3154296875,-0.00390625,0.21008403361344538,-76.05042016806723,1.050420168067227
8.635,IMU0,-0.0107421875,0.3046875,-0.01025390625,0.350140056022409,-74.92997198879551,1.1204481792717087
8.645,IMU0,-0.02099609375,0.30908203125,-0.03173828125,0.1400560224089636,-75.4201680672269,0.9803921568627452
8.655,IMU0,-0.00390625,0.30322265625,0.0078125,1.6106442577030813,-74.01960784313725,0.700280112044818
8.665,IMU0,0.0,0.3046875,0.00048828125,-0.0700280112044818,-74.43977591036415,0.9803921568627452
8.675,IMU0,-0.03076171875,0.314453125,-0.0283203125,-0.1400560224089636,-75.35014005602241,0.700280112044818
8.685,IMU0,-0.0087890625,0.3037109375,0.00927734375,1.1204481792717087,-75.28011204481793,0.700280112044818
8.695,IMU0,-0.009765625,0.3017578125,-0.02099609375,17.366946778711487,-76.33053221288516,0.42016806722689076
8.705,IMU0,0.00537109375,0.29833984375,0.01806640625,0.7703081232492998,-78.92156862745098,0.2801120448179272
8.715,IMU0,-0.00634765625,0.2998046875,-0.02294921875,-0.5602240896358543,-79.41176470588236,0.2801120448179272
8.725,IMU0,-0.02099609375,0.29736328125,-0.0087890625,0.8403361344537815,-78.15126050420169,0.4901960784313726
8.735,IMU0,0.00341796875,0.296875,0.001953125,0.9803921568627452,-79.55182072829132,-0.21008403361344538
8.745,IMU0,-0.02734375,0.30029296875,-0.0166015625,-0.42016806722689076,-78.01120448179272,0.2801120448179272
8.755,IMU0,-0.01171875,0.29541015625,-0.01416015625,-0.1400560224089636,-78.15126050420169,-0.1400560224089636
8.765,IMU0,0.0009765625,0.29541015625,-0.005859375,0.42016806722689076,-77.94117647058823,-0.5602240896358543
8.775,IMU0,-0.01953125,0.3134765625,-0.02197265625,-0.7703081232492998,-77.94117647058823,-0.21008403361344538
8.785,IMU0,-0.0234375,0.29736328125,-0.00634765625,0.8403361344537815,-78.15126050420169,-0.5602240896358543
8.795,IMU0,0.00830078125,0.29833984375,-0.00341796875,0.6302521008403361,-76.68067226890757,-1.050420168067227
8.805,IMU0,-0.0185546875,0.29736328125,-0.02099609375,0.0700280112044818,-78.0812324929972,-0.42016806722689076
8.815,IMU0,0.001953125,0.28515625,-0.0009765625,0.2801120448179272,-76.19047619047619,-0.9803921568627452
8.825,IMU0,-0.01611328125,0.2890625,-0.001953125,0.7703081232492998,-76.89075630252101,-1.050420168067227
8.835,IMU0,-0.0244140625,0.29833984375,-0.01953125,0.0700280112044818,-75.77030812324931,-0.700280112044818
8.845,IMU0,-0.0009765625,0.298828125,-0.00390625,0.5602240896358543,-74.92997198879551,-1.5406162464985995
8.855,IMU0,-0.00634765625,0.29248046875,0.01025390625,0.5602240896358543,-76.19047619047619,-1.2605042016806722
8.865,IMU0,-0.01416015625,0.287109375,-0.02734375,0.700280112044818,-79.34173669467788,-1.400560224089636
8.875,IMU0,0.00634765625,0.29150390625,0.0009765625,0.9803921568627452,-79.41176470588236,-1.680672268907563
8.885,IMU0,-0.01416015625,0.28857421875,-0.00830078125,1.1904761904761905,-80.3921568627451,-1.3305322128851542
8.895,IMU0,-0.01171875,0.287109375,-0.02197265625,0.5602240896358543,-79.90196078431373,-1.6106442577030813
8.905,IMU0,0.0087890625,0.28662109375,0.005859375,1.050420168067227,-81.65266106442577,-1.9607843137254903
8.915,IMU0,-0.01611328125,0.28955078125,-0.00439453125,0.5602240896358543,-81.51260504201682,-1.8207282913165266
8.925,IMU0,-0.02685546875,0.296875,-0.01025390625,-0.2801120448179272,-80.95238095238095,-1.7507002801120448
8.935,IMU0,0.0009765625,0.28466796875,-0.00146484375,1.1904761904761905,-79.69187675070029,-2.030812324929972
8.945,IMU0,-0.01953125,0.29248046875,0.00146484375,0.9103641456582633,-80.88235294117648,-2.030812324929972
8.955,IMU0,-0.00634765625,0.28466796875,-0.0302734375,-0.6302521008403361,-79.76190476190476,-1.9607843137254903
8.965,IMU0,-0.0224609375,0.28515625,0.00927734375,0.700280112044818,-80.3921568627451,-2.2408963585434174
8.975,IMU0,-0.0146484375,0.2880859375,-0.0205078125,0.42016806722689076,-78.99159663865547,-1.9607843137254903
8.985,IMU0,-0.021484375,0.28369140625,-0.0087890625,0.5602240896358543,-78.36134453781513,-1.7507002801120448
8.995,IMU0,-0.01025390625,0.28369140625,0.0029296875,0.0700280112044818,-77.73109243697479,-2.2408963585434174
9.005,IMU0,-0.005859375,0.28857421875,-0.01513671875,-0.1400560224089636,-75.07002801120449,-1.6106442577030813
9.015,IMU0,-0.03125,0.28076171875,-0.01171875,0.9103641456582633,-75.35014005602241,-1.6106442577030813
9.025,IMU0,0.00634765625,0.28125,0.00732421875,0.350140056022409,-73.31932773109244,-2.100840336134454
9.035,IMU0,-0.021484375,0.2822265625,-0.03369140625,0.5602240896358543,-73.52941176470588,-1.680672268907563
9.045,IMU0,-0.01171875,0.28076171875,0.0078125,1.2605042016806722,-72.82913165266106,-1.7507002801120448
9.055,IMU0,-0.00390625,0.2802734375,-0.00927734375,-0.0700280112044818,-73.17927170868347,-1.8907563025210086
9.065,IMU0,-0.0205078125,0.28076171875,-0.01416015625,-0.700280112044818,-72.47899159663866,-1.2605042016806722
9.075,IMU0,-0.0126953125,0.27734375,-0.0087890625,0.21008403361344538,-74.64985994397759,-1.5406162464985995
9.085,IMU0,0.00244140625,0.28125,-0.00390625,0.1400560224089636,-73.4593837535014,-1.4705882352941178
9.095,IMU0,-0.02294921875,0.2734375,-0.025390625,0.350140056022409,-73.38935574229693,-0.9103641456582633
9.105,IMU0,-0.01806640625,0.27783203125,0.0068359375,0.6302521008403361,-73.03921568627452,-1.4705882352941178
9.115,IMU0,0.00244140625,0.27587890625,-0.00927734375,0.4901960784313726,-71.21848739495799,-1.050420168067227
9.125,IMU0,-0.033203125,0.283203125,-0.01806640625,0.700280112044818,-71.49859943977592,-0.9103641456582633
9.135,IMU0,-0.001953125,0.28369140625,-0.00439453125,0.8403361344537815,-71.21848739495799,-1.2605042016806722
9.145,IMU0,-0.00927734375,0.2646484375,-0.00830078125,1.400560224089636,-70.58823529411765,-0.700280112044818
9.155,IMU0,0.00244140625,0.2724609375,-0.01708984375,0.700280112044818,-73.03921568627452,-0.9103641456582633
9.165,IMU0,-0.03076171875,0.27294921875,-0.00830078125,0.21008403361344538,-73.24929971988796,-0.4901960784313726
9.175,IMU0,-0.01513671875,0.2734375,-0.00341796875,1.1204481792717087,-72.96918767507003,-0.9803921568627452
9.185,IMU0,-0.02197265625,0.27392578125,-0.0107421875,0.7703081232492998,-72.26890756302521,-0.700280112044818
9.195,IMU0,-0.017578125,0.267578125,-0.01513671875,1.050420168067227,-71.07843137254902,-0.8403361344537815
9.205,IMU0,-0.0048828125,0.26708984375,-0.01611328125,-0.42016806722689076,-70.30812324929973,-1.1904761904761905
9.215,IMU0,0.00048828125,0.26806640625,-0.00439453125,0.42016806722689076,-70.16806722689076,-0.6302521008403361
9.225,IMU0,-0.01953125,0.26708984375,-0.0078125,0.1400560224089636,-72.75910364145659,-0.7703081232492998
9.235,IMU0,-0.01220703125,0.267578125,-0.01318359375,0.0,-72.05882352941177,-0.9803921568627452
9.245,IMU0,-0.0107421875,0.2705078125,0.00341796875,-0.4901960784313726,-72.12885154061625,-0.700280112044818
9.255,IMU0,-0.00048828125,0.2666015625,-0.02392578125,0.2801120448179272,-74.01960784313725,-0.9103641456582633
9.265,IMU0,-0.01171875,0.26806640625,0.00634765625,0.42016806722689076,-73.38935574229693,-0.6302521008403361
9.275,IMU0,-0.02392578125,0.2578125,-0.01611328125,-0.4901960784313726,-74.01960784313725,-0.9803921568627452
9.285,IMU0,-0.001953125,0.27734375,-0.02099609375,-1.1204481792717087,-73.24929971988796,-0.9803921568627452
9.295,IMU0,-0.0361328125,0.26708984375,0.0166015625,0.350140056022409,-73.94957983193278,-0.5602240896358543
9.305,IMU0,0.02490234375,0.26806640625,-0.03271484375,-0.6302521008403361,-73.38935574229693,-1.2605042016806722
9.315,IMU0,-0.03515625,0.26220703125,0.00732421875,0.1400560224089636,-76.05042016806723,-0.6302521008403361
9.325,IMU0,0.0078125,0.26220703125,-0.01025390625,-0.0700280112044818,-76.26050420168067,-1.1904761904761905
9.335,IMU0,-0.0068359375,0.2607421875,-0.02294921875,-0.21008403361344538,-76.68067226890757,-1.3305322128851542
9.345,IMU0,-0.017578125,0.25830078125,-0.00634765625,-0.0700280112044818,-76.68067226890757,-0.8403361344537815
9.355,IMU0,0.0078125,0.26611328125,-0.00439453125,0.1400560224089636,-75.49019607843138,-1.4705882352941178
9.365,IMU0,-0.015625,0.2626953125,-0.0087890625,0.42016806722689076,-77.17086834733894,-1.1904761904761905
9.375,IMU0,-0.01220703125,0.25634765625,-0.01318359375,0.350140056022409,-77.45098039215686,-1.1904761904761905
9.385,IMU0,-0.01123046875,0.26611328125,-0.0185546875,-0.21008403361344538,-77.31092436974791,-1.5406162464985995
9.395,IMU0,-0.01611328125,0.26513671875,0.00732421875,0.350140056022409,-74.85994397759104,-1.2605042016806722
9.405,IMU0,-0.01318359375,0.26025390625,-0.02392578125,0.700280112044818,-74.57983193277312,-1.5406162464985995
9.415,IMU0,0.005859375,0.2587890625,-0.00732421875,0.4901960784313726,-74.2296918767507,-1.7507002801120448
9.425,IMU0,-0.01953125,0.251953125,-0.00048828125,0.8403361344537815,-74.85994397759104,-1.1904761904761905
9.435,IMU0,-0.00732421875,0.25927734375,-0.00341796875,-0.2801120448179272,-74.57983193277312,-1.7507002801120448
9.445,IMU0,0.00146484375,0.26123046875,-0.00439453125,0.8403361344537815,-75.0,-1.680672268907563
9.455,IMU0,-0.0244140625,0.2529296875,-0.0078125,0.4901960784313726,-77.38095238095238,-1.680672268907563
9.465,IMU0,0.005859375,0.26025390625,0.00146484375,0.350140056022409,-76.89075630252101,-1.9607843137254903
9.475,IMU0,-0.005859375,0.248046875,-0.00634765625,0.2801120448179272,-76.9607843137255,-1.4705882352941178
9.485,IMU0,-0.02197265625,0.25439453125,-0.0107421875,-0.6302521008403361,-76.75070028011204,-1.7507002801120448
9.495,IMU0,0.00048828125,0.2529296875,-0.0078125,-0.0700280112044818,-74.85994397759104,-1.7507002801120448
9.505,IMU0,-0.0234375,0.251953125,-0.0029296875,1.3305322128851542,-76.5406162464986,-1.7507002801120448
9.515,IMU0,-0.0029296875,0.26416015625,-0.0205078125,-0.9803921568627452,-75.84033613445378,-1.9607843137254903
9.525,IMU0,-0.01953125,0.25390625,-0.01416015625,0.0700280112044818,-76.5406162464986,-1.5406162464985995
9.535,IMU0,-0.001953125,0.251953125,0.0166015625,0.0,-76.61064425770309,-2.100840336134454
9.545,IMU0,0.00341796875,0.25537109375,-0.0205078125,-0.8403361344537815,-76.75070028011204,-1.8907563025210086
9.555,IMU0,-0.013671875,0.24658203125,-0.00048828125,0.0700280112044818,-77.73109243697479,-1.6106442577030813
9.565,IMU0,-0.01953125,0.2470703125,-0.00927734375,0.0,-77.6610644257703,-2.030812324929972
9.575,IMU0,0.0087890625,0.248046875,-0.0234375,-0.21008403361344538,-77.03081232492998,-1.8907563025210086
9.585,IMU0,-0.02880859375,0.248046875,-0.005859375,-0.2801120448179272,-77.17086834733894,-1.6106442577030813
9.595,IMU0,0.00048828125,0.25,0.0,-0.7703081232492998,-75.77030812324931,-1.9607843137254903
9.605,IMU0,-0.0048828125,0.24755859375,-0.009765625,-0.9803921568627452,-76.5406162464986,-1.400560224089636
9.615,IMU0,0.00146484375,0.25830078125,-0.00244140625,-0.700280112044818,-76.19047619047619,-1.680672268907563
9.625,IMU0,-0.029296875,0.24365234375,-0.0068359375,-0.4901960784313726,-76.26050420168067,-1.2605042016806722
9.635,IMU0,-0.00341796875,0.2451171875,-0.00390625,-0.2801120448179272,-75.49019607843138,-1.8907563025210086
9.645,IMU0,-0.0087890625,0.24609375,-0.01025390625,-0.6302521008403361,-74.01960784313725,-1.400560224089636
9.655,IMU0,-0.0126953125,0.2412109375,-0.0146484375,-0.21008403361344538,-75.21008403361346,-1.400560224089636
9.665,IMU0,-0.013671875,0.24658203125,0.0,-0.1400560224089636,-75.98039215686275,-1.5406162464985995
9.675,IMU0,-0.01123046875,0.244140625,-0.0087890625,-0.4901960784313726,-75.84033613445378,-1.050420168067227
9.685,IMU0,-0.0283203125,0.2509765625,-0.021484375,-0.2801120448179272,-75.35014005602241,-1.1204481792717087
9.695,IMU0,-0.013671875,0.25048828125,0.00244140625,0.1400560224089636,-75.0,-1.050420168067227
9.705,IMU0,0.00341796875,0.240234375,-0.00146484375,-0.4901960784313726,-74.2296918767507,-0.9103641456582633
9.715,IMU0,-0.025390625,0.24169921875,-0.01806640625,-0.4901960784313726,-75.0,-0.7703081232492998
9.725,IMU0,-0.0029296875,0.2392578125,-0.00341796875,-0.21008403361344538,-73.94957983193278,-0.9103641456582633
9.735,IMU0,-0.0087890625,0.2451171875,-0.009765625,-0.350140056022409,-74.78991596638656,-0.7703081232492998
9.745,IMU0,-0.01220703125,0.2333984375,-0.013671875,-0.1400560224089636,-76.12044817927172,-0.4901960784313726
9.755,IMU0,-0.01220703125,0.2421875,-0.00439453125,-0.700280112044818,-76.19047619047619,-0.5602240896358543
9.765,IMU0,-0.02001953125,0.24755859375,-0.01025390625,-0.350140056022409,-74.85994397759104,-0.42016806722689076
9.775,IMU0,-0.01708984375,0.23779296875,-0.00390625,-0.42016806722689076,-72.05882352941177,-0.2801120448179272
9.785,IMU0,-0.001953125,0.23681640625,-0.001953125,-0.350140056022409,-71.63865546218487,-0.42016806722689076
9.795,IMU0,0.0009765625,0.23974609375,-0.00439453125,-0.2801120448179272,-72.47899159663866,0.1400560224089636
9.805,IMU0,-0.02099609375,0.23974609375,-0.015625,-0.0700280112044818,-74.71988795518207,0.0
9.815,IMU0,0.0166015625,0.236328125,0.001953125,0.0700280112044818,-73.17927170868347,-0.0700280112044818
9.825,IMU0,-0.03271484375,0.23681640625,-0.01123046875,0.350140056022409,-75.35014005602241,0.350140056022409
9.835,IMU0,-0.00146484375,0.23388671875,-0.00634765625,0.1400560224089636,-73.17927170868347,0.0700280112044818
9.845,IMU0,-0.00634765625,0.23388671875,-0.00390625,-0.21008403361344538,-71.98879551820728,0.21008403361344538
9.855,IMU0,-0.02490234375,0.2421875,-0.01220703125,0.4901960784313726,-73.94957983193278,0.350140056022409
9.865,IMU0,-0.01171875,0.23876953125,-0.01953125,0.350140056022409,-73.59943977591037,0.21008403361344538
9.875,IMU0,-0.01513671875,0.23046875,0.00146484375,0.21008403361344538,-72.47899159663866,0.350140056022409
9.885,IMU0,-0.00830078125,0.23095703125,-0.01123046875,0.4901960784313726,-73.38935574229693,0.21008403361344538
9.895,IMU0,-0.00927734375,0.23095703125,-0.00927734375,0.2801120448179272,-73.03921568627452,0.2801120448179272
9.905,IMU0,-0.00390625,0.24072265625,0.00048828125,0.5602240896358543,-74.01960784313725,0.0
9.915,IMU0,-0.0224609375,0.23291015625,-0.01513671875,0.1400560224089636,-74.71988795518207,0.1400560224089636
9.925,IMU0,-0.00146484375,0.2294921875,-0.01220703125,0.0700280112044818,-73.03921568627452,-0.1400560224089636
9.935,IMU0,-0.0205078125,0.23681640625,-0.00244140625,-0.21008403361344538,-74.29971988795519,-0.1400560224089636
9.945,IMU0,-0.005859375,0.23388671875,-0.00146484375,-0.2801120448179272,-73.94957983193278,0.0
9.955,IMU0,-0.0126953125,0.228515625,-0.00732421875,0.42016806722689076,-74.43977591036415,-0.42016806722689076
9.965,IMU0,-0.005859375,0.22802734375,-0.0078125,0.0700280112044818,-74.78991596638656,-0.2801120448179272
9.975,IMU0,0.00048828125,0.224609375,-0.00830078125,0.0700280112044818,-76.40056022408965,-0.42016806722689076
9.985,IMU0,-0.00830078125,0.236328125,-0.0029296875,-0.1400560224089636,-78.22128851540617,-0.700280112044818
9.995,IMU0,-0.03173828125,0.2314453125,-0.0068359375,-0.21008403361344538,-77.59103641456583,-0.42016806722689076
10.005,IMU0,0.0,0.22314453125,-0.0205078125,-0.0700280112044818,-75.28011204481793,-1.050420168067227
10.015,IMU0,-0.01318359375,0.23291015625,0.00830078125,0.350140056022409,-76.40056022408965,-0.7703081232492998
10.025,IMU0,-0.0029296875,0.22412109375,-0.001953125,-0.42016806722689076,-75.98039215686275,-0.9803921568627452
10.035,IMU0,-0.013671875,0.2216796875,-0.02197265625,-0.1400560224089636,-75.84033613445378,-1.2605042016806722
10.045,IMU0,-0.0107421875,0.232421875,0.00537109375,-0.42016806722689076,-75.84033613445378,-0.8403361344537815
10.055,IMU0,-0.015625,0.220703125,-0.017578125,-0.1400560224089636,-76.75070028011204,-1.1204481792717087
10.065,IMU0,0.0,0.2236328125,0.00537109375,-0.0700280112044818,-76.5406162464986,-1.400560224089636
10.075,IMU0,-0.00732421875,0.21728515625,-0.0234375,-0.9803921568627452,-76.89075630252101,-1.3305322128851542
10.085,IMU0,0.00439453125,0.22216796875,0.01025390625,0.2801120448179272,-76.9607843137255,-1.400560224089636
10.095,IMU0,-0.02392578125,0.21923828125,-0.0205078125,-0.6302521008403361,-77.59103641456583,-1.400560224089636
10.105,IMU0,-0.01171875,0.22607421875,-0.0107421875,-0.5602240896358543,-76.5406162464986,-1.5406162464985995
10.115,IMU0,-0.009765625,0.22265625,-0.0029296875,-0.0700280112044818,-76.68067226890757,-1.5406162464985995
10.125,IMU0,-0.00439453125,0.21728515625,-0.005859375,-0.700280112044818,-76.75070028011204,-1.5406162464985995
10.135,IMU0,-0.0224609375,0.2255859375,-0.00927734375,-0.4901960784313726,-76.9607843137255,-1.4705882352941178
10.145,IMU0,0.00048828125,0.21484375,0.00439453125,-0.2801120448179272,-76.89075630252101,-1.6106442577030813
10.155,IMU0,-0.00244140625,0.2197265625,-0.00927734375,-0.21008403361344538,-79.13165266106444,-1.680672268907563
10.165,IMU0,-0.0009765625,0.2197265625,-0.00927734375,-0.6302521008403361,-79.48179271708683,-1.5406162464985995
10.175,IMU0,-0.0185546875,0.21923828125,-0.001953125,-0.7703081232492998,-80.18207282913166,-1.5406162464985995
10.185,IMU0,0.005859375,0.21435546875,-0.0029296875,-0.4901960784313726,-79.97198879551821,-1.6106442577030813
10.195,IMU0,-0.01806640625,0.22119140625,-0.017578125,-1.1204481792717087,-82.3529411764706,-1.4705882352941178
10.205,IMU0,0.00439453125,0.2158203125,0.005859375,-0.42016806722689076,-81.65266106442577,-1.680672268907563
10.215,IMU0,-0.01513671875,0.2119140625,0.0048828125,-0.42016806722689076,-82.77310924369748,-1.4705882352941178
10.225,IMU0,-0.00927734375,0.21826171875,-0.0166015625,-0.9803921568627452,-82.91316526610645,-1.680672268907563
10.235,IMU0,-0.00537109375,0.2158203125,-0.0029296875,-0.21008403361344538,-82.77310924369748,-1.5406162464985995
10.245,IMU0,-0.0166015625,0.21435546875,0.00390625,-0.5602240896358543,-82.77310924369748,-1.6106442577030813
