ts,Ax,Ay,Az,Gx,Gy,Gz,T,P,velocity,q0_estimated,q1_estimated,q2_estimated,q3_estimated,filtered_altitude_AGL,filtered_acceleration,latitude,longitude,satellites
-0.75,,,,,,,,,-0.067,-8.553,4.73,2.111,0.057,-0.89,-0.01,,,
-0.745,-0.0049,0.4897,-0.0596,1.2605,-1.7507,-0.2801,31.5,100230.0,,,,,,,,,,
-0.74,,,,,,,,,-0.087,-8.553,4.729,2.112,0.057,-0.89,-0.01,39.389984130859375,-8.289515495300293,11.0
-0.735,-0.0049,0.4878,-0.063,1.3305,-1.3305,-0.2801,31.5,100215.0,,,,,,,,,,
-0.73,,,,,,,,,-0.105,-8.553,4.728,2.113,0.056,-0.8,-0.058,,,
-0.725,0.0049,0.4941,-0.0679,1.3305,-2.1008,-0.2801,31.4,100210.0,,,,,,,,,,
-0.72,,,,,,,,,-0.115,-8.553,4.728,2.114,0.055,-0.39,-0.058,,,
-0.715,0.0107,0.4897,-0.0645,1.1905,-2.1008,-0.2101,31.5,100230.0,,,,,,,,,,
-0.71,,,,,,,,,-0.124,-8.553,4.727,2.116,0.054,-0.39,-0.058,,,
-0.705,-0.0127,0.501,-0.0576,1.1204,-0.2801,-0.2101,31.5,100228.0,,,,,,,,,,
-0.7,,,,,,,,,-0.141,-8.553,4.727,2.118,0.053,-0.8,-0.058,,,
-0.695,0.0625,0.4785,-0.0757,1.4006,9.4538,-0.2101,31.5,100230.0,,,,,,,,,,
-0.69,,,,,,,,,-0.154,-8.553,4.726,2.118,0.053,-0.63,-0.058,,,
-0.685,-0.0029,0.4902,-0.0693,1.0504,12.1148,-0.07,31.5,100210.0,,,,,,,,,,
-0.68,,,,,,,,,-0.171,-8.555,4.726,2.111,0.056,-0.8,-0.058,,,
-0.675,0.0073,0.5059,-0.0493,1.1905,13.0252,-0.4902,31.5,100200.0,,,,,,,,,,
-0.67,,,,,,,,,-0.184,-8.558,4.725,2.102,0.061,-0.63,-0.049,,,
-0.665,0.0156,0.4678,-0.04,1.2605,7.7731,-0.6303,31.5,100238.0,,,,,,,,,,
-0.66,,,,,,,,,-0.189,-8.56,4.724,2.093,0.066,-0.3,-0.049,,,
-0.655,0.0176,0.4644,-0.0376,1.3305,1.5406,-0.8403,31.5,100231.0,,,,,,,,,,
-0.65,,,,,,,,,-0.202,-8.562,4.724,2.087,0.07,-0.63,-0.058,,,
-0.645,-0.0171,0.4785,-0.0991,0.9104,-0.1401,-0.3501,31.5,100204.0,,,,,,,,,,
-0.64,,,,,,,,,-0.214,-8.563,4.723,2.086,0.071,-0.63,-0.058,,,
-0.635,-0.0381,0.4922,-0.0317,1.2605,0.3501,-0.2101,31.5,100227.0,,,,,,,,,,
-0.63,,,,,,,,,-0.225,-8.563,4.723,2.086,0.071,-0.63,-0.058,,,
-0.625,0.0415,0.5049,-0.0537,1.2605,1.1905,-0.07,31.5,100222.0,,,,,,,,,,
-0.62,,,,,,,,,-0.237,-8.563,4.722,2.086,0.07,-0.63,-0.058,,,
-0.615,-0.0034,0.4854,-0.0767,1.5406,-4.902,0.0,31.5,100216.0,,,,,,,,,,
-0.61,,,,,,,,,-0.246,-8.564,4.722,2.085,0.071,-0.55,-0.049,,,
-0.605,0.0059,0.5044,-0.0454,0.9804,-7.0728,-0.1401,31.5,100199.0,,,,,,,,,,
-0.6,,,,,,,,,-0.248,-8.563,4.721,2.089,0.068,-0.13,-0.146,,,
-0.595,-0.0054,0.4922,-0.0342,1.4006,-8.1232,-0.1401,31.5,100215.0,,,,,,,,,,
-0.59,,,,,,,,,-0.237,-8.562,4.721,2.094,0.065,0.37,-0.049,,,
-0.585,-0.0044,0.4844,-0.0903,1.4006,-5.3221,-0.07,31.5,100234.0,,,,,,,,,,
-0.58,,,,,,,,,-0.226,-8.561,4.72,2.101,0.061,0.37,-0.01,,,
-0.575,0.022,0.4937,-0.0581,1.1204,-1.6807,0.0,31.5,100218.0,,,,,,,,,,
-0.57,,,,,,,,,-0.228,-8.56,4.719,2.105,0.059,-0.13,-0.146,,,
-0.565,0.0073,0.4863,-0.0537,1.3305,-0.9804,0.0,31.5,100213.0,,,,,,,,,,
-0.56,,,,,,,,,-0.221,-8.56,4.719,2.106,0.058,0.21,-0.01,,,
-0.555,0.0054,0.4912,-0.0566,1.2605,0.0,-0.1401,31.5,100207.0,,,,,,,,,,
-0.55,,,,,,,,,-0.21,-8.56,4.718,2.107,0.057,0.37,-0.01,,,
-0.545,0.0254,0.4868,-0.0596,1.1905,0.9804,-0.2801,31.5,100225.0,,,,,,,,,,
-0.54,,,,,,,,,-0.2,-8.561,4.718,2.107,0.057,0.37,-0.01,39.389984130859375,-8.289515495300293,11.0
-0.535,-0.0156,0.4922,-0.0723,1.1905,2.1709,-0.3501,31.5,100214.0,,,,,,,,,,
-0.53,,,,,,,,,-0.19,-8.561,4.717,2.106,0.057,0.37,-0.029,,,
-0.525,0.0161,0.4941,-0.0601,1.1905,4.4818,-0.4202,31.5,100211.0,,,,,,,,,,
-0.52,,,,,,,,,-0.179,-8.562,4.717,2.105,0.058,0.45,-0.029,,,
-0.515,0.0186,0.4907,-0.0586,1.1905,3.1513,-0.3501,31.5,100221.0,,,,,,,,,,
-0.51,,,,,,,,,-0.165,-8.563,4.716,2.102,0.059,0.54,-0.01,,,
-0.505,-0.0269,0.4922,-0.0664,1.1204,2.8711,-0.2801,31.5,100229.0,,,,,,,,,,
-0.5,,,,,,,,,-0.154,-8.564,4.716,2.099,0.061,0.45,-0.029,,,
-0.495,0.02,0.4932,-0.0356,1.1204,4.5518,-0.4202,31.5,100217.0,,,,,,,,,,
-0.49,,,,,,,,,-0.149,-8.564,4.715,2.097,0.062,0.21,-0.029,,,
-0.485,-0.0083,0.4907,-0.062,1.2605,1.4706,-0.3501,31.5,100208.0,,,,,,,,,,
-0.48,,,,,,,,,-0.141,-8.565,4.715,2.094,0.063,0.29,-0.01,,,
-0.475,0.0156,0.4897,-0.0552,1.1905,-0.3501,-0.2801,31.5,100218.0,,,,,,,,,,
-0.47,,,,,,,,,-0.129,-8.566,4.714,2.093,0.064,0.54,-0.029,,,
-0.465,0.0005,0.4893,-0.0586,1.2605,-3.2913,-0.2801,31.5,100239.0,,,,,,,,,,
-0.46,,,,,,,,,-0.122,-8.566,4.714,2.094,0.064,0.29,-0.029,,,
-0.455,-0.0107,0.4907,-0.0635,1.2605,-3.2913,-0.3501,31.5,100213.0,,,,,,,,,,
-0.45,,,,,,,,,-0.117,-8.566,4.713,2.096,0.062,0.2,-0.039,,,
-0.445,0.0127,0.4927,-0.062,1.3305,-1.5406,-0.3501,31.5,100213.0,,,,,,,,,,
-0.44,,,,,,,,,-0.111,-8.566,4.712,2.099,0.061,0.29,-0.039,,,
-0.435,0.002,0.4917,-0.0503,1.2605,-0.9804,-0.1401,31.5,100211.0,,,,,,,,,,
-0.43,,,,,,,,,-0.104,-8.566,4.712,2.1,0.06,0.29,-0.039,,,
-0.425,0.0107,0.4922,-0.0645,1.2605,-0.4202,-0.07,31.5,100222.0,,,,,,,,,,
-0.42,,,,,,,,,-0.098,-8.566,4.711,2.101,0.059,0.29,-0.039,,,
-0.415,0.0073,0.4922,-0.0498,1.1905,-0.1401,-0.1401,31.5,100220.0,,,,,,,,,,
-0.41,,,,,,,,,-0.091,-8.566,4.711,2.101,0.059,0.29,-0.019,,,
-0.405,0.0098,0.4897,-0.0688,1.1905,0.9104,-0.3501,31.5,100210.0,,,,,,,,,,
-0.4,,,,,,,,,-0.085,-8.566,4.71,2.101,0.058,0.29,-0.019,,,
-0.395,0.0137,0.4888,-0.0562,1.1905,1.1204,-0.4202,31.5,100231.0,,,,,,,,,,
-0.39,,,,,,,,,-0.072,-8.567,4.71,2.101,0.059,0.62,-0.039,,,
-0.385,-0.0127,0.4883,-0.0552,1.1204,1.0504,-0.3501,31.5,100202.0,,,,,,,,,,
-0.38,,,,,,,,,-0.068,-8.567,4.709,2.1,0.059,0.2,-0.039,,,
-0.375,-0.0024,0.4902,-0.0752,1.1905,4.3417,-0.4202,31.5,100217.0,,,,,,,,,,
-0.37,,,,,,,,,-0.055,-8.567,4.709,2.1,0.059,0.62,-0.039,,,
-0.365,0.0029,0.4922,-0.0513,1.0504,5.2521,-0.4202,31.5,100204.0,,,,,,,,,,
-0.36,,,,,,,,,-0.042,-8.569,4.708,2.097,0.061,0.62,-0.039,,,
-0.355,-0.0039,0.4912,-0.0513,1.1204,3.7115,-0.4902,31.5,100227.0,,,,,,,,,,
-0.35,,,,,,,,,-0.03,-8.57,4.708,2.093,0.063,0.62,-0.019,,,
-0.345,0.0156,0.4922,-0.0591,1.2605,0.9104,-0.2801,31.5,100219.0,,,,,,,,,,
-0.34,,,,,,,,,-0.025,-8.571,4.707,2.09,0.065,0.28,-0.029,39.389984130859375,-8.289515495300293,11.0
-0.335,-0.0059,0.4912,-0.0493,1.2605,-2.8011,-0.2101,31.5,100185.0,,,,,,,,,,
-0.33,,,,,,,,,-0.024,-8.571,4.706,2.09,0.065,0.11,-0.029,,,
-0.325,0.0083,0.4932,-0.0562,1.3305,-4.3417,-0.2101,31.5,100215.0,,,,,,,,,,
-0.32,,,,,,,,,-0.019,-8.571,4.706,2.092,0.063,0.28,-0.029,,,
-0.315,0.0054,0.4897,-0.0635,1.3305,-4.3417,-0.2801,31.5,100228.0,,,,,,,,,,
-0.31,,,,,,,,,-0.011,-8.57,4.705,2.095,0.061,0.44,-0.029,,,
-0.305,0.0083,0.4858,-0.0518,1.2605,-3.0812,-0.1401,31.5,100225.0,,,,,,,,,,
-0.3,,,,,,,,,-0.006,-8.57,4.705,2.099,0.059,0.28,-0.029,,,
-0.295,0.0098,0.4907,-0.0664,1.3305,-1.2605,-0.1401,31.5,100215.0,,,,,,,,,,
-0.29,,,,,,,,,-0.002,-8.57,4.704,2.101,0.058,0.28,-0.029,,,
-0.285,0.0063,0.4912,-0.0625,1.1905,1.4006,-0.2801,31.5,100195.0,,,,,,,,,,
-0.28,,,,,,,,,0.003,-8.57,4.704,2.102,0.057,0.28,-0.029,,,
-0.275,0.0122,0.4922,-0.061,1.1905,3.5714,-0.4202,31.5,100233.0,,,,,,,,,,
-0.27,,,,,,,,,0.01,-8.57,4.703,2.101,0.058,0.44,-0.029,,,
-0.265,0.021,0.4937,-0.0605,1.1204,3.1513,-0.4902,31.5,100205.0,,,,,,,,,,
-0.26,,,,,,,,,0.011,-8.571,4.703,2.099,0.059,0.11,-0.029,,,
-0.255,-0.0117,0.4922,-0.0562,1.2605,1.9608,-0.4902,31.5,100261.0,,,,,,,,,,
-0.25,,,,,,,,,0.018,-8.572,4.702,2.096,0.06,0.44,-0.029,,,
-0.245,0.0015,0.4927,-0.0552,1.1905,2.591,-0.4902,31.5,100217.0,,,,,,,,,,
-0.24,,,,,,,,,0.026,-8.573,4.701,2.095,0.061,0.44,-0.029,,,
-0.235,0.0005,0.4883,-0.0571,1.1905,2.2409,-0.4902,31.5,100237.0,,,,,,,,,,
-0.23,,,,,,,,,0.03,-8.573,4.701,2.093,0.062,0.27,-0.01,,,
-0.225,-0.0098,0.4912,-0.0562,1.1204,1.9608,-0.3501,31.5,100226.0,,,,,,,,,,
-0.22,,,,,,,,,0.019,-8.574,4.7,2.092,0.063,-0.4,-0.029,,,
-0.215,0.0215,0.4907,-0.064,1.1905,1.1204,-0.2801,31.5,100215.0,,,,,,,,,,
-0.21,,,,,,,,,0.008,-8.574,4.7,2.091,0.064,-0.4,-0.029,,,
-0.205,-0.0015,0.4897,-0.0488,1.1905,-1.5406,-0.1401,31.5,100224.0,,,,,,,,,,
-0.2,,,,,,,,,0.012,-8.575,4.699,2.09,0.064,0.27,-0.029,,,
-0.195,-0.0098,0.4917,-0.0532,1.2605,-2.8711,-0.2101,31.5,100241.0,,,,,,,,,,
-0.19,,,,,,,,,0.004,-8.575,4.699,2.091,0.063,-0.31,-0.029,,,
-0.185,0.0161,0.4922,-0.0684,1.4006,-2.0308,-0.3501,31.5,100234.0,,,,,,,,,,
-0.18,,,,,,,,,-0.008,-8.575,4.698,2.093,0.062,-0.48,-0.019,,,
-0.175,-0.0088,0.5,-0.0566,0.9104,-2.451,-0.2101,31.5,100201.0,,,,,,,,,,
-0.17,,,,,,,,,-0.019,-8.575,4.697,2.095,0.061,-0.48,-0.019,,,
-0.165,0.0088,0.4839,-0.063,0.9804,0.2801,-0.2101,31.5,100229.0,,,,,,,,,,
-0.16,,,,,,,,,-0.03,-8.574,4.697,2.097,0.06,-0.48,-0.019,,,
-0.155,0.0132,0.5068,-0.0527,0.9804,1.4706,-0.1401,31.5,100227.0,,,,,,,,,,
-0.15,,,,,,,,,-0.041,-8.575,4.697,2.097,0.059,-0.48,-0.029,,,
-0.145,-0.0112,0.5024,-0.0669,1.3305,1.6807,-0.2101,31.5,100206.0,,,,,,,,,,
-0.14,,,,,,,,,-0.054,-8.575,4.697,2.096,0.06,-0.56,-0.029,39.389984130859375,-8.289515495300293,11.0
-0.135,0.0225,0.6201,-0.042,1.0504,0.9104,-0.2801,31.5,100223.0,,,,,,,,,,
-0.13,,,,,,,,,-0.064,-8.576,4.696,2.095,0.06,-0.48,-0.019,,,
-0.125,0.0049,0.8457,-0.0776,1.5406,-2.1709,-0.3501,31.5,100224.0,,,,,,,,,,
-0.12,,,,,,,,,-0.071,-8.576,4.695,2.094,0.06,-0.31,-0.01,,,
-0.115,-0.0078,1.1514,-0.0688,0.7703,-3.6415,-0.4202,31.5,100234.0,,,,,,,,,,
-0.11,,,,,,,,,-0.076,-8.576,4.695,2.096,0.059,-0.31,0.146,,,
-0.105,0.0029,1.7871,-0.0771,1.1905,1.6807,-0.2101,31.5,100245.0,,,,,,,,,,
-0.1,,,,,,,,,-0.085,-8.575,4.694,2.099,0.058,-0.56,0.194,,,
-0.095,-0.0107,2.001,-0.0142,0.7003,3.5014,-0.1401,31.5,100245.0,,,,,,,,,,
-0.09,,,,,,,,,-0.094,-8.576,4.694,2.098,0.058,-0.56,0.282,,,
-0.085,0.0015,2.0547,-0.0811,1.1204,-0.07,-0.4202,31.5,100195.0,,,,,,,,,,
-0.08,,,,,,,,,-0.079,-8.577,4.694,2.095,0.06,-0.56,2.538,,,
-0.075,-0.0288,2.0459,-0.0962,0.2101,-2.9412,-0.4202,31.5,100200.0,,,,,,,,,,
-0.07,,,,,,,,,-0.02,-8.577,4.693,2.095,0.06,-0.56,7.029,,,
-0.065,-0.0229,2.0454,-0.0806,0.9104,0.7703,-0.4202,31.5,100219.0,,,,,,,,,,
-0.06,,,,,,,,,0.106,-8.576,4.693,2.098,0.059,-0.31,13.116,,,
-0.055,-0.0063,2.0781,-0.0952,1.4706,8.1232,0.0,31.5,100227.0,,,,,,,,,,
-0.05,,,,,,,,,0.361,-8.576,4.693,2.097,0.059,-0.22,25.774,,,
-0.045,-0.0073,2.1968,-0.0444,1.2605,5.042,0.07,31.5,100227.0,,,,,,,,,,
-0.04,,,,,,,,,0.656,-8.578,4.692,2.091,0.062,-0.31,30.033,,,
-0.035,-0.0566,2.3174,-0.1045,0.9104,-0.3501,0.0,31.5,100204.0,,,,,,,,,,
-0.03,,,,,,,,,0.955,-8.58,4.692,2.088,0.063,-0.55,30.918,,,
-0.025,-0.0146,2.4692,-0.0562,1.1204,5.6723,-0.1401,31.5,100218.0,,,,,,,,,,
-0.02,,,,,,,,,1.254,-8.58,4.692,2.088,0.063,-0.55,30.927,,,
-0.015,0.0405,2.6304,-0.0718,1.0504,7.2129,0.0,31.5,100191.0,,,,,,,,,,
-0.01,,,,,,,,,1.568,-8.581,4.691,2.084,0.065,0.11,31.102,,,
-0.005,-0.0381,2.8232,-0.0273,0.5602,-1.4706,0.2801,31.5,100222.0,,,,,,,,,,
0.0,,,,,,,,,1.889,-8.582,4.691,2.078,0.068,0.2,31.569,,,
0.005,-0.0073,3.1646,-0.0967,1.3305,-6.0924,0.4202,31.5,100229.0,,,,,,,,,,
0.01,,,,,,,,,2.229,10.0,0.0,-0.001,0.0,0.2,33.932,,,
0.015,-0.0591,3.4131,-0.0962,1.5406,-7.0728,0.9804,31.5,100252.0,,,,,,,,,,
0.02,,,,,,,,,2.592,9.999,0.0,-0.006,0.001,0.11,36.333,,,
0.025,0.0088,3.4492,-0.1055,1.4706,-1.8908,0.3501,31.5,100185.0,,,,,,,,,,
0.03,,,,,,,,,2.986,9.999,0.001,-0.013,0.002,-0.14,39.357,,,
0.035,-0.0469,3.6509,-0.0615,1.1204,2.8711,0.1401,31.5,100207.0,,,,,,,,,,
0.04,,,,,,,,,3.412,9.999,0.002,-0.014,0.002,-0.14,42.565,,,
0.045,0.0195,3.8047,-0.062,1.5406,3.9916,0.0,31.5,100208.0,,,,,,,,,,
0.05,,,,,,,,,3.876,9.999,0.003,-0.012,0.002,0.2,46.405,,,
0.055,-0.0601,3.873,-0.105,1.4006,-5.2521,0.2801,31.5,100205.0,,,,,,,,,,
0.06,,,,,,,,,4.409,9.999,0.003,-0.009,0.003,1.03,53.202,39.389984130859375,-8.28951644897461,11.0
0.065,-0.0469,3.8198,-0.1353,2.1008,-1.8207,0.1401,31.5,100214.0,,,,,,,,,,
0.07,,,,,,,,,4.991,9.999,0.004,-0.013,0.003,1.03,58.15,,,
0.075,0.0054,3.7114,-0.1196,2.1008,4.7619,0.2101,31.5,100211.0,,,,,,,,,,
0.08,,,,,,,,,5.58,9.999,0.006,-0.015,0.004,1.03,58.87,,,
0.085,-0.0269,3.584,-0.062,1.2605,2.0308,0.4902,31.5,100193.0,,,,,,,,,,
0.09,,,,,,,,,6.209,9.999,0.007,-0.011,0.004,0.78,62.885,,,
0.095,-0.0078,3.5249,-0.0488,0.9804,1.5406,0.4902,31.5,100199.0,,,,,,,,,,
0.1,,,,,,,,,6.838,9.999,0.008,-0.01,0.005,1.03,62.885,,,
0.105,-0.063,3.5288,-0.0728,1.3305,4.902,0.3501,31.5,100229.0,,,,,,,,,,
0.11,,,,,,,,,7.467,9.999,0.008,-0.008,0.005,1.12,62.885,,,
0.115,-0.0161,3.605,-0.0503,0.7703,4.6218,0.3501,31.5,100198.0,,,,,,,,,,
0.12,,,,,,,,,8.097,9.999,0.009,-0.004,0.006,1.12,62.885,,,
0.125,-0.0078,3.6562,-0.1191,0.9104,1.1905,0.4202,31.5,100159.0,,,,,,,,,,
0.13,,,,,,,,,8.726,9.999,0.009,0.0,0.006,1.12,62.885,,,
0.135,0.0483,3.6899,-0.1172,0.7703,-1.6807,0.3501,31.4,100194.0,,,,,,,,,,
0.14,,,,,,,,,9.356,9.999,0.009,0.0,0.007,1.28,62.992,,,
0.145,-0.0571,3.707,-0.0913,0.6303,-3.7815,0.0,31.5,100193.0,,,,,,,,,,
0.15,,,,,,,,,9.986,9.999,0.01,-0.001,0.007,1.79,62.992,,,
0.155,-0.0293,3.6772,0.0332,0.0,-1.5406,-0.4902,31.5,100191.0,,,,,,,,,,
0.16,,,,,,,,,10.617,9.999,0.01,-0.004,0.008,1.87,62.992,,,
0.165,-0.2144,3.585,-0.0991,2.9412,-4.2717,-0.7003,31.5,100186.0,,,,,,,,,,
0.17,,,,,,,,,11.247,9.999,0.009,-0.006,0.007,2.21,62.992,,,
0.175,0.0264,3.5547,-0.292,-3.3613,17.0868,0.3501,31.5,100194.0,,,,,,,,,,
0.18,,,,,,,,,11.867,9.999,0.012,-0.01,0.007,2.29,61.971,,,
0.185,0.0322,3.5137,-0.0586,-0.6303,12.465,1.5406,31.5,100183.0,,,,,,,,,,
0.19,,,,,,,,,12.487,9.999,0.008,0.004,0.008,2.21,61.971,,,
0.195,-0.145,3.7026,-0.1035,-5.1821,5.4622,3.6415,31.5,100169.0,,,,,,,,,,
0.2,,,,,,,,,13.107,9.999,0.007,0.015,0.009,2.29,61.971,,,
0.205,0.0288,3.665,-0.061,-3.5714,2.9412,5.112,31.5,100146.0,,,,,,,,,,
0.21,,,,,,,,,13.737,9.999,0.002,0.019,0.012,2.46,62.992,,,
0.215,-0.1265,3.8911,0.3389,-4.7619,-0.07,4.6218,31.5,100174.0,,,,,,,,,,
0.22,,,,,,,,,14.369,9.999,0.0,0.022,0.017,2.88,63.167,,,
0.225,0.1265,3.7251,-1.1162,-1.0504,18.7675,4.4818,31.5,100157.0,,,,,,,,,,
0.23,,,,,,,,,15.004,9.999,-0.005,0.022,0.021,2.88,63.41,,,
0.235,-0.2432,3.7485,0.624,-3.3613,25.9104,0.8403,31.5,100172.0,,,,,,,,,,
0.24,,,,,,,,,15.638,9.999,-0.006,0.038,0.026,3.13,63.41,,,
0.245,0.0479,3.7954,-0.874,3.1513,5.6723,-0.4902,31.5,100176.0,,,,,,,,,,
0.25,,,,,,,,,16.273,9.999,-0.01,0.06,0.026,3.89,63.41,,,
0.255,-0.207,3.894,0.4644,-0.7703,-8.1232,-1.3305,31.5,100144.0,,,,,,,,,,
0.26,,,,,,,,,16.912,9.999,-0.007,0.065,0.026,3.89,63.916,39.389984130859375,-8.28951644897461,11.0
0.265,0.0527,3.7759,-0.5259,3.5014,-8.1232,-1.1204,31.5,100184.0,,,,,,,,,,
0.27,,,,,,,,,17.557,9.999,-0.009,0.058,0.025,4.06,64.363,,,
0.275,-0.1396,3.7607,0.2827,-0.9104,-10.5042,0.5602,31.5,100168.0,,,,,,,,,,
0.28,,,,,,,,,18.205,9.999,-0.006,0.051,0.025,4.06,64.83,,,
0.285,-0.0444,3.8413,-0.0713,1.0504,-7.0028,2.1008,31.5,100164.0,,,,,,,,,,
0.29,,,,,,,,,18.856,9.999,-0.007,0.041,0.025,4.31,65.073,,,
0.295,-0.0601,3.8462,-0.2109,0.0,-6.5126,3.7815,31.5,100181.0,,,,,,,,,,
0.3,,,,,,,,,19.511,9.999,-0.007,0.035,0.027,4.39,65.374,,,
0.305,0.0156,3.9165,-0.1704,0.0,-0.9104,3.7815,31.5,100158.0,,,,,,,,,,
0.31,,,,,,,,,20.169,9.999,-0.007,0.029,0.031,4.06,65.763,,,
0.315,-0.0107,3.876,0.062,-0.9804,-4.4818,3.8515,31.5,100152.0,,,,,,,,,,
0.32,,,,,,,,,20.827,9.999,-0.007,0.028,0.034,4.39,65.763,,,
0.325,-0.0962,3.7993,-0.4707,-0.7703,-7.9132,3.0812,31.5,100171.0,,,,,,,,,,
0.33,,,,,,,,,21.494,9.999,-0.009,0.024,0.038,4.39,66.677,,,
0.335,0.0654,3.8086,-0.229,-11.6947,-1.8908,1.4706,31.5,100161.0,,,,,,,,,,
0.34,,,,,,,,,22.161,9.999,-0.01,0.017,0.041,4.39,66.677,,,
0.345,-0.061,3.8359,0.0176,-9.8739,-15.1961,-1.1204,31.5,100168.0,,,,,,,,,,
0.35,,,,,,,,,22.828,9.999,-0.02,0.016,0.042,4.73,66.677,,,
0.355,-0.0708,3.9106,-0.1777,-16.1064,-13.4454,-0.8403,31.5,100168.0,,,,,,,,,,
0.36,,,,,,,,,23.494,9.999,-0.029,0.002,0.042,4.39,66.57,39.389984130859375,-8.289511680603027,11.0
0.365,0.1665,3.647,-0.873,-3.5714,-28.5014,-2.591,31.5,100114.0,,,,,,,,,,
0.37,,,,,,,,,24.161,9.999,-0.044,-0.009,0.041,4.39,66.677,,,
0.375,-0.0986,3.6597,0.8101,-1.6807,-30.8824,-2.2409,31.5,100138.0,,,,,,,,,,
0.38,,,,,,,,,24.828,9.999,-0.047,-0.034,0.039,4.73,66.677,,,
0.385,-0.3237,3.7744,-1.2046,2.521,-42.9272,1.6106,31.5,100146.0,,,,,,,,,,
0.39,,,,,,,,,25.494,9.999,-0.049,-0.061,0.038,4.98,66.57,,,
0.395,0.0962,3.6284,1.0054,0.5602,-4.6218,2.451,31.5,100128.0,,,,,,,,,,
0.4,,,,,,,,,26.155,9.999,-0.047,-0.098,0.039,5.23,66.025,,,
0.405,-0.1997,3.7661,-1.2207,-4.6218,-31.7227,7.9132,31.5,100152.0,,,,,,,,,,
0.41,,,,,,,,,26.814,9.999,-0.047,-0.103,0.042,5.74,65.841,,,
0.415,-0.041,3.6772,0.3066,-2.591,31.3725,5.3922,31.5,100146.0,,,,,,,,,,
0.42,,,,,,,,,27.467,9.998,-0.052,-0.13,0.049,5.74,65.345,,,
0.425,-0.1763,3.6343,-0.4316,-1.1204,34.6639,5.1821,31.5,100127.0,,,,,,,,,,
0.43,,,,,,,,,28.12,9.999,-0.054,-0.103,0.054,6.24,65.18,,,
0.435,0.1479,3.6616,0.0059,1.9608,44.2577,3.7815,31.5,100142.0,,,,,,,,,,
0.44,,,,,,,,,28.754,9.999,-0.056,-0.073,0.058,6.24,63.41,,,
0.445,-0.1113,3.4536,-0.3335,4.902,42.507,2.1709,31.5,100120.0,,,,,,,,,,
0.45,,,,,,,,,29.385,9.999,-0.055,-0.035,0.062,6.58,63.099,,,
0.455,-0.2788,3.4355,-0.0054,4.2017,36.9048,2.3109,31.5,100111.0,,,,,,,,,,
0.46,,,,,,,,,30.016,9.999,-0.051,0.001,0.064,6.91,63.06,39.389984130859375,-8.28950023651123,11.0
0.465,0.1382,3.3721,-0.1831,-1.1204,53.7115,0.9804,31.5,100111.0,,,,,,,,,,
0.47,,,,,,,,,30.647,9.999,-0.048,0.034,0.066,6.91,63.06,,,
0.475,-0.127,3.3628,-0.2095,-6.0924,32.6331,1.8908,31.5,100108.0,,,,,,,,,,
0.48,,,,,,,,,31.273,9.999,-0.05,0.08,0.066,7.75,62.555,,,
0.485,0.0596,3.543,-0.2241,-6.7927,24.93,1.0504,31.5,100122.0,,,,,,,,,,
0.49,,,,,,,,,31.898,9.999,-0.056,0.109,0.068,7.84,62.438,,,
0.495,-0.2275,3.4521,-0.3315,-5.6022,3.0112,0.4202,31.5,100106.0,,,,,,,,,,
0.5,,,,,,,,,32.505,9.998,-0.063,0.13,0.069,8.26,60.736,,,
0.505,-0.1211,3.5254,-0.0967,-3.3613,-1.4706,0.9804,31.5,100112.0,,,,,,,,,,
0.51,,,,,,,,,33.095,9.998,-0.068,0.133,0.07,8.43,58.957,,,
0.515,0.0161,3.6143,-0.0503,0.2801,11.7647,1.2605,31.5,100096.0,,,,,,,,,,
0.52,,,,,,,,,33.685,9.998,-0.071,0.131,0.071,9.1,58.957,,,
0.525,-0.0576,3.665,-0.2739,2.1008,11.5546,1.8908,31.5,100106.0,,,,,,,,,,
0.53,,,,,,,,,34.275,9.998,-0.071,0.141,0.072,9.18,58.957,,,
0.535,-0.0552,3.6445,0.0679,-1.3305,-3.0112,1.8908,31.5,100113.0,,,,,,,,,,
0.54,,,,,,,,,34.865,9.998,-0.07,0.151,0.074,9.18,58.957,,,
0.545,0.0688,3.7144,0.1904,-1.4706,-7.7031,1.4006,31.5,100093.0,,,,,,,,,,
0.55,,,,,,,,,35.469,9.998,-0.072,0.148,0.076,9.18,60.386,,,
0.555,-0.0757,3.7251,-0.4014,-0.5602,-9.944,1.6807,31.5,100087.0,,,,,,,,,,
0.56,,,,,,,,,36.077,9.998,-0.073,0.142,0.078,9.43,60.736,,,
0.565,-0.0205,3.7124,0.0312,-1.4706,-5.6723,1.0504,31.5,100072.0,,,,,,,,,,
0.57,,,,,,,,,36.698,9.998,-0.074,0.133,0.079,9.6,62.156,,,
0.575,0.0396,3.7114,0.1611,-1.2605,-7.0028,0.7703,31.5,100080.0,,,,,,,,,,
0.58,,,,,,,,,37.326,9.998,-0.076,0.128,0.081,9.6,62.759,,,
0.585,-0.0791,3.7236,-0.2324,-1.2605,-9.2437,0.7703,31.5,100078.0,,,,,,,,,,
0.59,,,,,,,,,37.958,9.998,-0.077,0.122,0.081,10.44,63.167,,,
0.595,-0.0215,3.73,-0.0137,-2.3109,-6.8627,0.2801,31.5,100081.0,,,,,,,,,,
0.6,,,,,,,,,38.599,9.998,-0.079,0.113,0.082,10.7,64.091,,,
0.605,0.0112,3.731,0.0889,-1.8908,-8.4734,0.1401,31.5,100073.0,,,,,,,,,,
0.61,,,,,,,,,39.24,9.998,-0.081,0.107,0.083,11.2,64.11,,,
0.615,-0.0718,3.7324,-0.1582,-1.6807,-10.7843,0.07,31.5,100062.0,,,,,,,,,,
0.62,,,,,,,,,39.882,9.998,-0.083,0.1,0.083,11.7,64.149,,,
0.625,0.0078,3.728,-0.0195,-2.2409,-9.3137,-0.4902,31.5,100103.0,,,,,,,,,,
0.63,,,,,,,,,40.526,9.998,-0.085,0.09,0.084,11.79,64.334,,,
0.635,-0.0112,3.7271,0.0352,-1.8908,-11.6947,-0.5602,31.5,100058.0,,,,,,,,,,
0.64,,,,,,,,,41.169,9.998,-0.087,0.082,0.084,11.79,64.363,,,
0.645,-0.0659,3.7285,-0.1426,-1.6106,-14.0756,-0.7003,31.5,100059.0,,,,,,,,,,
0.65,,,,,,,,,41.813,9.998,-0.089,0.071,0.083,11.96,64.402,,,
0.655,-0.0024,3.7251,-0.0073,-2.1008,-13.5854,-1.2605,31.5,100060.0,,,,,,,,,,
0.66,,,,,,,,,42.457,9.999,-0.091,0.059,0.083,12.38,64.421,,,
0.665,-0.0229,3.7319,0.0205,-2.0308,-15.7563,-1.3305,31.5,100050.0,,,,,,,,,,
0.67,,,,,,,,,43.102,9.999,-0.093,0.047,0.082,12.38,64.421,,,
0.675,-0.0356,3.7319,-0.1255,-1.9608,-17.577,-1.5406,31.5,100040.0,,,,,,,,,,
0.68,,,,,,,,,43.746,9.999,-0.095,0.033,0.082,13.3,64.431,,,
0.685,-0.0161,3.7329,-0.0005,-2.2409,-17.6471,-2.0308,31.5,100045.0,,,,,,,,,,
0.69,,,,,,,,,44.39,9.999,-0.097,0.018,0.081,13.47,64.46,,,
0.695,-0.0239,3.7354,-0.0044,-2.1008,-19.7479,-2.3109,31.5,100032.0,,,,,,,,,,
0.7,,,,,,,,,45.035,9.999,-0.1,0.002,0.079,13.55,64.48,,,
0.705,-0.0386,3.7368,-0.1133,-2.0308,-21.3585,-2.7311,31.5,100046.0,,,,,,,,,,
0.71,,,,,,,,,45.68,9.999,-0.102,-0.014,0.078,13.64,64.499,,,
0.715,-0.0122,3.7339,-0.0034,-2.3109,-21.4286,-3.0812,31.5,100028.0,,,,,,,,,,
0.72,,,,,,,,,46.325,9.999,-0.104,-0.033,0.076,14.31,64.499,,,
0.725,-0.0327,3.7314,-0.0303,-2.0308,-23.5994,-3.2213,31.5,100002.0,,,,,,,,,,
0.73,,,,,,,,,46.969,9.999,-0.106,-0.052,0.073,14.65,64.499,,,
0.735,-0.0215,3.7334,-0.0952,-2.1008,-24.1597,-3.4314,31.5,100026.0,,,,,,,,,,
0.74,,,,,,,,,47.614,9.998,-0.108,-0.073,0.071,14.73,64.499,,,
0.745,-0.0161,3.7388,-0.002,-2.451,-24.3697,-3.5714,31.5,100021.0,,,,,,,,,,
0.75,,,,,,,,,48.259,9.998,-0.11,-0.094,0.068,15.15,64.519,,,
0.755,-0.0376,3.7373,-0.0488,-2.1709,-26.2605,-3.7815,31.5,100008.0,,,,,,,,,,
0.76,,,,,,,,,48.904,9.998,-0.113,-0.115,0.066,15.83,64.528,39.38998031616211,-8.289485931396484,11.0
0.765,-0.0205,3.7339,-0.0835,-2.2409,-27.451,-4.2017,31.5,100026.0,,,,,,,,,,
0.77,,,,,,,,,49.549,9.998,-0.115,-0.139,0.063,16.16,64.538,,,
0.775,-0.0142,3.728,-0.0063,-2.2409,-28.9216,-4.4818,31.5,99996.0,,,,,,,,,,
0.78,,,,,,,,,50.193,9.997,-0.117,-0.163,0.06,16.33,64.538,,,
0.785,-0.0337,3.7305,-0.0674,-1.9608,-31.4426,-4.6919,31.5,99994.0,,,,,,,,,,
0.79,,,,,,,,,50.838,9.997,-0.119,-0.188,0.056,16.33,64.538,,,
0.795,-0.0156,3.731,-0.0732,-1.9608,-32.423,-4.972,31.5,99995.0,,,,,,,,,,
0.8,,,,,,,,,51.483,9.996,-0.121,-0.216,0.053,16.75,64.538,,,
0.805,-0.0137,3.7236,-0.0142,-1.8207,-33.9636,-5.112,31.5,99987.0,,,,,,,,,,
0.81,,,,,,,,,52.128,9.996,-0.123,-0.244,0.049,17.84,64.528,,,
0.815,-0.0269,3.7207,-0.0747,-1.6106,-36.4846,-5.2521,31.5,99971.0,,,,,,,,,,
0.82,,,,,,,,,52.772,9.995,-0.125,-0.274,0.045,18.35,64.489,,,
0.825,-0.0127,3.7212,-0.0586,-1.4706,-37.8151,-5.4622,31.5,99982.0,,,,,,,,,,
0.83,,,,,,,,,53.416,9.994,-0.126,-0.306,0.041,18.85,64.48,,,
0.835,-0.0176,3.7236,-0.0205,-1.2605,-40.056,-5.6022,31.5,99977.0,,,,,,,,,,
0.84,,,,,,,,,54.06,9.993,-0.128,-0.339,0.037,18.94,64.47,,,
0.845,-0.019,3.7256,-0.084,-0.9804,-42.577,-5.8123,31.5,99989.0,,,,,,,,,,
0.85,,,,,,,,,54.703,9.992,-0.129,-0.374,0.033,19.02,64.421,,,
0.855,-0.0103,3.7246,-0.0503,-0.8403,-44.4678,-6.0224,31.5,99969.0,,,,,,,,,,
0.86,,,,,,,,,55.346,9.99,-0.13,-0.412,0.028,19.44,64.373,39.389976501464844,-8.289469718933105,11.0
0.865,-0.0176,3.7183,-0.0288,-0.5602,-46.9888,-6.1625,31.5,99965.0,,,,,,,,,,
0.87,,,,,,,,,55.988,9.988,-0.131,-0.451,0.024,19.61,64.353,,,
0.875,-0.0034,3.7207,-0.083,-0.4202,-49.3697,-6.3025,31.5,99948.0,,,,,,,,,,
0.88,,,,,,,,,56.63,9.986,-0.131,-0.492,0.019,20.03,64.334,,,
0.885,-0.0107,3.7192,-0.0518,-0.2801,-51.1905,-6.4426,31.5,99948.0,,,,,,,,,,
0.89,,,,,,,,,57.272,9.984,-0.132,-0.535,0.014,20.45,64.334,,,
0.895,-0.0093,3.7207,-0.0464,0.07,-53.5714,-6.5126,31.5,99940.0,,,,,,,,,,
0.9,,,,,,,,,57.914,9.982,-0.132,-0.58,0.009,20.96,64.285,,,
0.905,-0.0015,3.7246,-0.0806,0.3501,-55.7423,-6.5826,31.5,99934.0,,,,,,,,,,
0.91,,,,,,,,,58.555,9.979,-0.132,-0.627,0.004,21.13,64.275,,,
0.915,-0.002,3.7266,-0.042,0.5602,-57.423,-6.5826,31.5,99937.0,,,,,,,,,,
0.92,,,,,,,,,59.196,9.976,-0.132,-0.675,0.0,21.46,64.285,,,
0.925,0.0005,3.7275,-0.0625,0.9804,-59.7339,-6.5126,31.5,99929.0,,,,,,,,,,
0.93,,,,,,,,,59.838,9.972,-0.131,-0.725,-0.004,22.89,64.334,,,
0.935,0.0029,3.7251,-0.0698,1.2605,-61.2045,-6.4426,31.5,99915.0,,,,,,,,,,
0.94,,,,,,,,,60.48,9.968,-0.131,-0.778,-0.009,22.89,64.353,,,
0.945,0.0039,3.7227,-0.0405,1.3305,-63.0252,-6.3725,31.5,99942.0,,,,,,,,,,
0.95,,,,,,,,,61.122,9.964,-0.13,-0.831,-0.014,23.56,64.353,,,
0.955,0.0146,3.7212,-0.0781,1.6807,-65.8964,-6.2325,31.5,99907.0,,,,,,,,,,
0.96,,,,,,,,,61.763,9.959,-0.129,-0.886,-0.018,23.56,64.314,,,
0.965,0.0083,3.7241,-0.0752,2.0308,-68.0672,-6.0224,31.5,99906.0,,,,,,,,,,
0.97,,,,,,,,,62.404,9.954,-0.127,-0.943,-0.023,23.82,64.314,,,
0.975,0.0063,3.7251,-0.043,2.3109,-70.3081,-5.7423,31.5,99889.0,,,,,,,,,,
0.98,,,,,,,,,63.046,9.948,-0.126,-1.003,-0.027,24.07,64.343,,,
0.985,0.0161,3.7339,-0.0879,2.7311,-72.9692,-5.5322,31.5,99898.0,,,,,,,,,,
0.99,,,,,,,,,63.687,9.942,-0.124,-1.064,-0.031,24.49,64.353,,,
0.995,0.0024,3.7314,-0.0469,3.2913,-78.3613,-5.042,31.5,99895.0,,,,,,,,,,
1.0,,,,,,,,,64.328,9.935,-0.121,-1.127,-0.034,25.67,64.363,,,
1.005,0.0122,3.7363,-0.0894,3.7115,-81.5826,-4.902,31.5,99926.0,,,,,,,,,,
1.01,,,,,,,,,64.97,9.927,-0.119,-1.195,-0.037,26.34,64.363,,,
1.015,0.0073,3.7358,-0.0576,4.1317,-84.2437,-4.7619,31.5,99875.0,,,,,,,,,,
1.02,,,,,,,,,65.611,9.918,-0.116,-1.266,-0.04,26.34,64.363,,,
1.025,0.0117,3.7354,-0.0547,4.5518,-87.0448,-4.5518,31.5,99889.0,,,,,,,,,,
1.03,,,,,,,,,66.251,9.909,-0.112,-1.339,-0.043,26.43,64.363,,,
1.035,0.0132,3.7295,-0.0884,4.972,-90.1961,-4.2717,31.5,99864.0,,,,,,,,,,
1.04,,,,,,,,,66.893,9.898,-0.109,-1.415,-0.045,27.1,64.489,,,
1.045,0.001,3.7246,-0.0547,5.3221,-92.8571,-4.0616,31.5,99871.0,,,,,,,,,,
1.05,,,,,,,,,67.535,9.887,-0.105,-1.493,-0.047,27.35,64.489,,,
1.055,0.0078,3.7266,-0.0532,5.8123,-96.1485,-4.1317,31.5,99872.0,,,,,,,,,,
1.06,,,,,,,,,68.177,9.874,-0.1,-1.573,-0.049,27.86,64.489,39.389976501464844,-8.289454460144043,6.0
1.065,0.0088,3.7256,-0.083,6.0224,-99.93,-4.2017,31.5,99854.0,,,,,,,,,,
1.07,,,,,,,,,68.818,9.861,-0.096,-1.656,-0.051,27.86,64.489,,,
1.075,0.0093,3.7251,-0.0518,6.3025,-103.1513,-4.1317,31.5,99849.0,,,,,,,,,,
1.08,,,,,,,,,69.459,9.846,-0.091,-1.742,-0.052,29.04,64.489,,,
1.085,0.0112,3.7329,-0.0552,6.7927,-107.2129,-4.1317,31.5,99838.0,,,,,,,,,,
1.09,,,,,,,,,70.1,9.83,-0.086,-1.831,-0.054,29.29,64.45,,,
1.095,0.0034,3.7427,-0.0791,7.1429,-111.4846,-4.0616,31.5,99822.0,,,,,,,,,,
1.1,,,,,,,,,70.74,9.812,-0.08,-1.923,-0.056,29.37,64.45,,,
1.105,0.0151,3.7446,-0.0503,7.563,-115.056,-4.1317,31.5,99806.0,,,,,,,,,,
1.11,,,,,,,,,71.381,9.793,-0.074,-2.018,-0.057,29.96,64.45,,,
1.115,-0.0024,3.7407,-0.0581,7.8431,-118.8375,-4.0616,31.5,99815.0,,,,,,,,,,
1.12,,,,,,,,,72.021,9.772,-0.068,-2.117,-0.058,30.81,64.45,,,
1.125,0.0063,3.7393,-0.0684,8.1933,-122.0588,-4.1317,31.5,99794.0,,,,,,,,,,
1.13,,,,,,,,,72.661,9.75,-0.062,-2.218,-0.059,31.23,64.45,,,
1.135,0.019,3.7461,-0.043,8.3333,-125.7703,-4.1317,31.5,99789.0,,,,,,,,,,
1.14,,,,,,,,,73.302,9.726,-0.055,-2.322,-0.061,32.15,64.519,,,
1.145,-0.0049,3.7427,-0.0557,8.6134,-129.6919,-4.2017,31.5,99780.0,,,,,,,,,,
1.15,,,,,,,,,73.944,9.7,-0.049,-2.429,-0.062,33.5,64.645,,,
1.155,0.0234,3.7383,-0.0674,8.8936,-133.2633,-4.3417,31.5,99788.0,,,,,,,,,,
1.16,,,,,,,,,74.586,9.672,-0.042,-2.538,-0.063,34.09,64.674,,,
1.165,0.0195,3.7466,-0.0332,8.8235,-135.7843,-4.4118,31.5,99788.0,,,,,,,,,,
1.17,,,,,,,,,75.228,9.641,-0.034,-2.651,-0.064,34.85,64.674,,,
1.175,0.0146,3.7505,-0.0596,9.1737,-139.4258,-4.4818,31.5,99769.0,,,,,,,,,,
1.18,,,,,,,,,75.871,9.609,-0.027,-2.765,-0.065,35.86,64.713,,,
1.185,0.0479,3.7593,-0.0854,9.4538,-142.577,-4.2717,31.5,99754.0,,,,,,,,,,
1.19,,,,,,,,,76.514,9.575,-0.02,-2.882,-0.066,36.28,64.713,,,
1.195,0.0195,3.7578,-0.0312,9.6639,-145.6583,-3.8515,31.5,99756.0,,,,,,,,,,
1.2,,,,,,,,,77.156,9.538,-0.012,-3.001,-0.067,36.37,64.752,,,
1.205,0.0156,3.7603,-0.0601,9.944,-149.0896,-3.5714,31.5,99746.0,,,,,,,,,,
1.21,,,,,,,,,77.798,9.499,-0.004,-3.122,-0.067,36.37,64.781,,,
1.215,0.0254,3.7598,-0.062,10.014,-152.8011,-3.4314,31.5,99770.0,,,,,,,,,,
1.22,,,,,,,,,78.44,9.458,0.003,-3.245,-0.067,37.04,64.791,,,
1.225,0.0098,3.7627,-0.04,10.084,-156.3725,-3.3613,31.5,99741.0,,,,,,,,,,
1.23,,,,,,,,,79.083,9.414,0.01,-3.371,-0.067,37.88,64.869,,,
1.235,0.02,3.7598,-0.0649,10.2241,-159.5238,-3.3613,31.5,99740.0,,,,,,,,,,
1.24,,,,,,,,,79.727,9.367,0.018,-3.5,-0.067,37.97,65.014,,,
1.245,0.0332,3.7612,-0.085,10.2941,-164.0056,-3.3613,31.5,99729.0,,,,,,,,,,
1.25,,,,,,,,,80.371,9.317,0.026,-3.63,-0.067,39.06,65.044,,,
1.255,0.0293,3.7686,-0.0615,10.6443,-169.888,-3.1513,31.5,99734.0,,,,,,,,,,
1.26,,,,,,,,,81.015,9.264,0.034,-3.763,-0.067,39.23,65.053,39.38998031616211,-8.289427757263184,10.0
1.265,0.0049,3.7646,-0.0894,11.0644,-176.3305,-3.0112,31.5,99708.0,,,,,,,,,,
1.27,,,,,,,,,81.659,9.207,0.042,-3.9,-0.066,39.91,65.053,,,
1.275,0.0444,3.7661,-0.0884,11.5546,-181.4426,-2.8011,31.5,99711.0,,,,,,,,,,
1.28,,,,,,,,,82.302,9.146,0.051,-4.041,-0.066,40.33,65.063,,,
1.285,0.0264,3.7754,-0.0698,11.8347,-187.7451,-2.521,31.5,99726.0,,,,,,,,,,
1.29,,,,,,,,,82.945,9.081,0.059,-4.186,-0.065,40.41,65.082,,,
1.295,-0.0186,3.7837,-0.0952,12.465,-194.6779,-2.6611,31.5,99706.0,,,,,,,,,,
1.3,,,,,,,,,83.588,9.011,0.068,-4.334,-0.063,40.92,65.112,,,
1.305,0.0576,3.7852,-0.1021,13.0252,-200.0,-2.8711,31.5,99709.0,,,,,,,,,,
1.31,,,,,,,,,84.231,8.936,0.077,-4.487,-0.062,41.34,65.15,,,
1.315,0.0117,3.7832,-0.0811,13.6555,-206.7927,-2.6611,31.5,99678.0,,,,,,,,,,
1.32,,,,,,,,,84.874,8.856,0.087,-4.642,-0.06,41.59,65.18,,,
1.325,-0.0215,3.7803,-0.1099,14.5658,-212.8852,-2.7311,31.5,99663.0,,,,,,,,,,
1.33,,,,,,,,,85.517,8.771,0.097,-4.801,-0.058,42.86,65.228,,,
1.335,0.0537,3.7827,-0.082,15.056,-218.5574,-3.0112,31.5,99674.0,,,,,,,,,,
1.34,,,,,,,,,86.162,8.68,0.108,-4.963,-0.056,43.03,65.364,,,
1.345,-0.0234,3.7876,-0.0806,15.7563,-224.7899,-3.0812,31.5,99644.0,,,,,,,,,,
1.35,,,,,,,,,86.806,8.583,0.119,-5.128,-0.054,43.11,65.462,,,
1.355,0.0044,3.7866,-0.0742,16.3165,-228.7115,-3.4314,31.5,99672.0,,,,,,,,,,
1.36,,,,,,,,,87.45,8.481,0.131,-5.295,-0.052,43.28,65.51,,,
1.365,0.019,3.7861,-0.0859,16.9468,-233.7535,-3.5714,31.5,99646.0,,,,,,,,,,
1.37,,,,,,,,,88.096,8.373,0.143,-5.464,-0.049,45.64,65.52,,,
1.375,-0.0322,3.79,-0.0581,17.0168,-236.6947,-3.8515,31.5,99653.0,,,,,,,,,,
1.38,,,,,,,,,88.741,8.26,0.155,-5.633,-0.047,45.98,65.53,,,
1.385,-0.0137,3.7842,-0.0688,17.1569,-237.7451,-4.5518,31.5,99650.0,,,,,,,,,,
1.39,,,,,,,,,89.385,8.141,0.168,-5.803,-0.045,46.15,65.559,,,
1.395,-0.0005,3.7876,-0.0728,17.6471,-238.5854,-5.112,31.5,99634.0,,,,,,,,,,
1.4,,,,,,,,,90.029,8.019,0.181,-5.971,-0.043,46.91,65.559,,,
1.405,-0.0195,3.7842,-0.0591,17.7171,-239.3557,-5.5322,31.5,99586.0,,,,,,,,,,
1.41,,,,,,,,,90.674,7.893,0.194,-6.136,-0.041,47.75,65.578,,,
1.415,-0.0059,3.7905,-0.0557,17.577,-240.056,-6.0224,31.5,99610.0,,,,,,,,,,
1.42,,,,,,,,,91.317,7.762,0.208,-6.3,-0.039,48.0,65.578,,,
1.425,-0.0205,3.7896,-0.0679,17.507,-241.1064,-6.3725,31.5,99609.0,,,,,,,,,,
1.43,,,,,,,,,91.961,7.628,0.222,-6.461,-0.038,48.34,65.588,,,
1.435,-0.0142,3.7881,-0.0518,17.437,-242.0168,-6.9328,31.5,99595.0,,,,,,,,,,
1.44,,,,,,,,,92.603,7.49,0.236,-6.62,-0.037,48.51,65.607,,,
1.445,-0.0083,3.7939,-0.0503,17.2269,-242.6471,-7.493,31.5,99575.0,,,,,,,,,,
1.45,,,,,,,,,93.246,7.349,0.25,-6.777,-0.037,49.35,65.607,,,
1.455,-0.0107,3.7944,-0.0488,17.0868,-243.3473,-7.9832,31.5,99574.0,,,,,,,,,,
1.46,,,,,,,,,93.889,7.203,0.264,-6.931,-0.037,51.38,65.617,,,
1.465,-0.0024,3.7983,-0.0381,16.8067,-244.0476,-8.4034,31.5,99600.0,,,,,,,,,,
1.47,,,,,,,,,94.531,7.054,0.278,-7.082,-0.038,51.46,65.646,,,
1.475,-0.0005,3.7979,-0.0483,16.5266,-245.2381,-8.8235,31.5,99558.0,,,,,,,,,,
1.48,,,,,,,,,95.174,6.901,0.293,-7.23,-0.038,52.22,65.646,,,
1.485,0.0049,3.7979,-0.0391,16.1765,-246.7787,-9.0336,31.5,99557.0,,,,,,,,,,
1.49,,,,,,,,,95.816,6.744,0.307,-7.376,-0.04,52.64,65.666,,,
1.495,-0.0044,3.7998,-0.0283,15.6863,-247.8992,-9.1737,31.5,99558.0,,,,,,,,,,
1.5,,,,,,,,,96.458,6.583,0.321,-7.519,-0.041,53.4,65.734,,,
1.505,0.0034,3.8027,-0.0439,15.4062,-248.8796,-9.3137,31.5,99555.0,,,,,,,,,,
1.51,,,,,,,,,97.1,6.419,0.334,-7.66,-0.044,54.33,65.744,,,
1.515,-0.0039,3.8018,-0.0332,14.916,-250.2801,-9.5238,31.5,99526.0,,,,,,,,,,
1.52,,,,,,,,,97.742,6.25,0.348,-7.797,-0.046,54.42,65.812,,,
1.525,0.0083,3.8047,-0.0234,14.2157,-251.8207,-9.6639,31.5,99523.0,,,,,,,,,,
1.53,,,,,,,,,98.384,6.078,0.361,-7.932,-0.049,55.77,65.812,,,
1.535,0.0029,3.8115,-0.0483,13.9356,-253.7115,-9.7339,31.5,99492.0,,,,,,,,,,
1.54,,,,,,,,,99.025,5.902,0.373,-8.063,-0.052,55.77,65.821,,,
1.545,0.0264,3.8135,-0.0195,13.0252,-256.5126,-9.8039,31.5,99499.0,,,,,,,,,,
1.55,,,,,,,,,99.665,5.721,0.386,-8.192,-0.056,55.85,65.85,,,
1.555,0.0073,3.8125,-0.0532,12.7451,-258.5434,-9.7339,31.5,99479.0,,,,,,,,,,
1.56,,,,,,,,,100.305,5.536,0.397,-8.317,-0.06,56.02,65.889,39.389984130859375,-8.289403915405273,9.0
1.565,0.0249,3.8135,-0.0063,12.0448,-259.7339,-9.7339,31.5,99476.0,,,,,,,,,,
1.57,,,,,,,,,100.946,5.346,0.409,-8.44,-0.065,58.47,65.909,,,
1.575,0.043,3.8188,-0.0386,11.4146,-261.5546,-9.5238,31.5,99472.0,,,,,,,,,,
1.58,,,,,,,,,101.587,5.153,0.42,-8.559,-0.07,58.72,65.948,,,
1.585,0.0293,3.8086,-0.0435,10.9944,-263.3754,-9.0336,31.5,99463.0,,,,,,,,,,
1.59,,,,,,,,,102.229,4.956,0.43,-8.674,-0.076,60.75,66.084,,,
1.595,0.0386,3.8091,-0.0225,10.5042,-265.056,-8.6134,31.5,99466.0,,,,,,,,,,
1.6,,,,,,,,,102.871,4.755,0.439,-8.785,-0.081,61.34,66.084,,,
1.605,0.0288,3.8018,-0.0454,10.1541,-267.0868,-8.1933,31.5,99446.0,,,,,,,,,,
1.61,,,,,,,,,103.513,4.55,0.447,-8.892,-0.087,62.44,66.084,,,
1.615,0.0337,3.8022,-0.0259,9.7339,-267.9972,-7.7731,31.5,99468.0,,,,,,,,,,
1.62,,,,,,,,,104.154,4.341,0.455,-8.996,-0.093,62.69,66.084,,,
1.625,0.0547,3.8008,-0.0449,9.3838,-269.4678,-7.2829,31.5,99454.0,,,,,,,,,,
1.63,,,,,,,,,104.794,4.129,0.462,-9.095,-0.1,63.03,66.084,,,
1.635,0.0371,3.7979,-0.0522,8.9636,-271.1485,-6.5826,31.5,99435.0,,,,,,,,,,
1.64,,,,,,,,,105.433,3.914,0.469,-9.189,-0.106,63.37,66.035,,,
1.645,0.041,3.8052,-0.0391,8.5434,-272.3389,-6.0224,31.5,99444.0,,,,,,,,,,
1.65,,,,,,,,,106.07,3.695,0.474,-9.279,-0.113,63.54,66.025,,,
1.655,0.0498,3.8047,-0.0518,8.4034,-273.9496,-5.3922,31.5,99418.0,,,,,,,,,,
1.66,,,,,,,,,106.706,3.473,0.478,-9.364,-0.119,63.79,65.957,39.389984130859375,-8.289403915405273,9.0
1.665,0.0454,3.8042,-0.0654,8.3333,-275.2801,-4.7619,31.5,99423.0,,,,,,,,,,
1.67,,,,,,,,,107.341,3.248,0.482,-9.444,-0.126,64.55,65.948,,,
1.675,0.0532,3.7983,-0.0474,7.9832,-276.8908,-4.1317,31.5,99420.0,,,,,,,,,,
1.68,,,,,,,,,107.975,3.019,0.485,-9.519,-0.132,65.23,65.938,,,
1.685,0.041,3.7969,-0.0708,8.1232,-278.6415,-3.5014,31.5,99399.0,,,,,,,,,,
1.69,,,,,,,,,108.608,2.788,0.487,-9.589,-0.138,65.4,65.899,,,
1.695,0.0425,3.7905,-0.061,7.9832,-279.6218,-2.9412,31.5,99424.0,,,,,,,,,,
1.7,,,,,,,,,109.239,2.554,0.488,-9.654,-0.145,66.16,65.889,,,
1.705,0.0645,3.7891,-0.0493,8.0532,-281.1625,-2.381,31.5,99377.0,,,,,,,,,,
1.71,,,,,,,,,109.871,2.317,0.488,-9.714,-0.151,67.09,65.87,,,
1.715,0.0249,3.7876,-0.0732,8.6134,-282.9132,-1.8207,31.5,99378.0,,,,,,,,,,
1.72,,,,,,,,,110.5,2.078,0.487,-9.768,-0.157,67.17,65.821,,,
1.725,0.0674,3.7915,-0.0615,9.1036,-283.1232,-1.2605,31.5,99356.0,,,,,,,,,,
1.73,,,,,,,,,111.128,1.836,0.486,-9.816,-0.162,67.43,65.812,,,
1.735,0.0527,3.7866,-0.0503,9.1036,-284.3838,-0.5602,31.5,99380.0,,,,,,,,,,
1.74,,,,,,,,,111.755,1.592,0.484,-9.859,-0.167,67.59,65.792,,,
1.745,0.0244,3.7808,-0.0762,8.8936,-285.5042,0.2101,31.5,99401.0,,,,,,,,,,
1.75,,,,,,,,,112.381,1.347,0.481,-9.895,-0.172,69.2,65.685,,,
1.755,0.0557,3.7681,-0.0459,8.8936,-287.0448,0.7003,31.5,99351.0,,,,,,,,,,
1.76,,,,,,,,,113.005,1.099,0.478,-9.926,-0.176,69.2,65.666,,,
1.765,0.0093,3.7666,-0.0601,9.5238,-288.6555,1.2605,31.5,99339.0,,,,,,,,,,
1.77,,,,,,,,,113.629,0.85,0.473,-9.95,-0.181,70.81,65.637,,,
1.775,0.0142,3.7651,-0.0864,9.8739,-289.0756,1.5406,31.5,99353.0,,,,,,,,,,
1.78,,,,,,,,,114.251,0.599,0.468,-9.969,-0.185,70.98,65.607,,,
1.785,0.0327,3.7676,-0.0522,9.5938,-289.1457,1.8207,31.5,99328.0,,,,,,,,,,
1.79,,,,,,,,,114.872,0.347,0.462,-9.981,-0.188,71.06,65.588,,,
1.795,-0.0078,3.7637,-0.0771,10.5042,-290.5462,1.9608,31.5,99322.0,,,,,,,,,,
1.8,,,,,,,,,115.492,0.095,0.455,-9.987,-0.192,72.84,65.471,,,
1.805,0.0176,3.7578,-0.0889,10.5042,-290.9664,1.9608,31.5,99318.0,,,,,,,,,,
1.81,,,,,,,,,116.108,-0.158,0.448,-9.986,-0.195,73.09,65.219,,,
1.815,-0.0034,3.7539,-0.0688,10.7143,-292.0868,2.1008,31.5,99313.0,,,,,,,,,,
1.82,,,,,,,,,116.722,-0.412,0.441,-9.979,-0.197,73.26,65.209,,,
1.825,-0.0288,3.75,-0.082,11.2745,-293.2073,2.0308,31.5,99290.0,,,,,,,,,,
1.83,,,,,,,,,117.336,-0.666,0.434,-9.966,-0.2,74.27,65.189,,,
1.835,-0.0137,3.7466,-0.0879,11.7647,-293.7675,1.7507,31.5,99310.0,,,,,,,,,,
1.84,,,,,,,,,117.948,-0.921,0.426,-9.946,-0.201,75.21,65.16,,,
1.845,-0.0249,3.7402,-0.0498,11.5546,-294.5378,1.4006,31.5,99262.0,,,,,,,,,,
1.85,,,,,,,,,118.56,-1.176,0.418,-9.919,-0.203,75.71,65.131,,,
1.855,-0.0356,3.7329,-0.0752,12.1849,-295.3782,0.9104,31.5,99241.0,,,,,,,,,,
1.86,,,,,,,,,119.168,-1.431,0.41,-9.886,-0.204,76.05,65.014,,,
1.865,-0.0278,3.7192,-0.0664,12.1849,-295.7283,0.4202,31.5,99225.0,,,,,,,,,,
1.87,,,,,,,,,119.775,-1.686,0.402,-9.846,-0.205,76.47,64.937,,,
1.875,-0.0195,3.7134,-0.0459,12.535,-296.4286,-0.07,31.5,99226.0,,,,,,,,,,
1.88,,,,,,,,,120.379,-1.94,0.394,-9.799,-0.205,76.73,64.859,,,
1.885,-0.0479,3.7065,-0.0503,12.6751,-297.479,-0.6303,31.5,99202.0,,,,,,,,,,
1.89,,,,,,,,,120.983,-2.193,0.387,-9.746,-0.205,78.42,64.791,,,
1.895,-0.0156,3.7007,-0.0439,12.6751,-297.6891,-1.2605,31.5,99194.0,,,,,,,,,,
1.9,,,,,,,,,121.587,-2.446,0.379,-9.686,-0.204,80.79,64.664,,,
1.905,-0.0327,3.6987,-0.0332,12.3249,-298.6695,-1.7507,31.5,99191.0,,,,,,,,,,
1.91,,,,,,,,,122.19,-2.697,0.372,-9.619,-0.204,82.57,64.519,,,
1.915,-0.0322,3.6929,-0.0479,11.8347,-299.5098,-2.2409,31.5,99196.0,,,,,,,,,,
1.92,,,,,,,,,122.789,-2.947,0.365,-9.546,-0.203,83.84,64.246,,,
1.925,-0.0195,3.6904,-0.0366,11.8347,-300.1401,-2.6611,31.5,99134.0,,,,,,,,,,
1.93,,,,,,,,,123.386,-3.196,0.358,-9.466,-0.203,83.92,64.13,,,
1.935,-0.0391,3.6851,-0.0166,11.3445,-300.6303,-3.0812,31.5,99160.0,,,,,,,,,,
1.94,,,,,,,,,123.982,-3.443,0.352,-9.379,-0.202,85.87,63.993,,,
1.945,-0.0244,3.6802,-0.0347,11.2745,-300.7703,-3.5714,31.5,99145.0,,,,,,,,,,
1.95,,,,,,,,,124.575,-3.688,0.345,-9.286,-0.201,86.38,63.877,,,
1.955,-0.019,3.6748,-0.0132,10.7143,-300.8403,-3.9916,31.5,99144.0,,,,,,,,,,
1.96,,,,,,,,,125.166,-3.931,0.339,-9.186,-0.201,86.55,63.838,39.38999938964844,-8.289348602294922,9.0
1.965,-0.0327,3.6582,-0.0234,9.8039,-301.0504,-4.4118,31.5,99099.0,,,,,,,,,,
1.97,,,,,,,,,125.755,-4.171,0.333,-9.079,-0.2,86.8,63.721,,,
1.975,0.0029,3.6509,-0.0288,9.5238,-300.9104,-4.7619,31.5,99103.0,,,,,,,,,,
1.98,,,,,,,,,126.344,-4.409,0.328,-8.967,-0.2,89.42,63.673,,,
1.985,0.0,3.6431,-0.002,9.1737,-301.3305,-4.7619,31.5,99099.0,,,,,,,,,,
1.99,,,,,,,,,126.932,-4.643,0.323,-8.848,-0.2,90.7,63.566,,,
1.995,-0.0093,3.6323,-0.0122,8.6835,-302.381,-4.6218,31.5,99079.0,,,,,,,,,,
2.0,,,,,,,,,127.517,-4.874,0.317,-8.723,-0.199,90.78,63.468,,,
2.005,0.0063,3.6221,-0.0293,7.423,-303.4314,-4.5518,31.5,99042.0,,,,,,,,,,
2.01,,,,,,,,,128.1,-5.103,0.312,-8.591,-0.2,91.63,63.362,,,
2.015,-0.0063,3.6104,-0.0015,7.0728,-304.3417,-4.4118,31.5,99065.0,,,,,,,,,,
2.02,,,,,,,,,128.681,-5.329,0.306,-8.453,-0.201,94.25,63.031,,,
2.025,0.0029,3.606,-0.0215,6.6527,-305.6022,-4.3417,31.5,99061.0,,,,,,,,,,
2.03,,,,,,,,,129.259,-5.552,0.301,-8.309,-0.202,94.59,62.885,,,
2.035,0.0034,3.604,-0.0376,6.0924,-306.3025,-4.2017,31.5,99038.0,,,,,,,,,,
2.04,,,,,,,,,129.833,-5.771,0.295,-8.158,-0.204,94.59,62.73,,,
2.045,0.0195,3.6045,-0.0186,5.6022,-306.5826,-3.9216,31.5,99011.0,,,,,,,,,,
2.05,,,,,,,,,130.405,-5.988,0.29,-8.001,-0.205,96.29,62.516,,,
2.055,0.021,3.5952,-0.0205,5.3922,-307.493,-3.5014,31.5,98988.0,,,,,,,,,,
2.06,,,,,,,,,130.975,-6.2,0.284,-7.837,-0.208,97.48,62.311,39.389991760253906,-8.289324760437012,8.0
2.065,0.0366,3.5811,-0.0166,4.7619,-308.1933,-2.9412,31.5,98991.0,,,,,,,,,,
2.07,,,,,,,,,131.54,-6.408,0.278,-7.668,-0.21,97.81,62.078,,,
2.075,0.0322,3.5605,-0.0488,4.0616,-309.8039,-2.2409,31.5,98998.0,,,,,,,,,,
2.08,,,,,,,,,132.105,-6.612,0.272,-7.493,-0.213,99.43,61.991,,,
2.085,0.0303,3.5518,-0.063,3.5014,-311.0644,-1.5406,31.5,99008.0,,,,,,,,,,
2.09,,,,,,,,,132.668,-6.812,0.265,-7.312,-0.217,99.76,61.961,,,
2.095,0.0332,3.5259,-0.0762,4.2017,-312.6751,0.07,31.5,99001.0,,,,,,,,,,
2.1,,,,,,,,,133.231,-7.008,0.258,-7.124,-0.221,102.05,61.952,,,
2.105,0.0132,3.5166,-0.0615,4.7619,-313.2353,0.8403,31.5,98974.0,,,,,,,,,,
2.11,,,,,,,,,133.791,-7.2,0.249,-6.931,-0.226,102.31,61.777,,,
2.115,0.043,3.5171,-0.0562,5.3922,-313.4454,1.1905,31.5,99005.0,,,,,,,,,,
2.12,,,,,,,,,134.347,-7.387,0.24,-6.731,-0.231,102.9,61.495,,,
2.125,0.04,3.5181,-0.0835,5.7423,-313.9356,1.8207,31.5,98953.0,,,,,,,,,,
2.13,,,,,,,,,134.896,-7.568,0.229,-6.527,-0.236,102.9,61.086,,,
2.135,0.0405,3.5078,-0.0859,5.9524,-315.056,2.521,31.5,98958.0,,,,,,,,,,
2.14,,,,,,,,,135.441,-7.744,0.218,-6.317,-0.24,103.16,60.911,,,
2.145,0.0332,3.498,-0.0742,6.2325,-316.5266,3.2913,31.5,98961.0,,,,,,,,,,
2.15,,,,,,,,,135.979,-7.915,0.206,-6.102,-0.245,103.75,60.396,,,
2.155,0.0225,3.4863,-0.0869,6.9328,-317.9272,3.7815,31.5,98964.0,,,,,,,,,,
2.16,,,,,,,,,136.513,-8.08,0.194,-5.881,-0.25,103.75,60.241,,,
2.165,0.0371,3.4766,-0.0786,7.7031,-318.6975,4.2717,31.5,98946.0,,,,,,,,,,
2.17,,,,,,,,,137.047,-8.241,0.18,-5.655,-0.255,105.19,60.221,,,
2.175,0.0283,3.4668,-0.0576,8.6134,-319.6779,4.8319,31.5,98915.0,,,,,,,,,,
2.18,,,,,,,,,137.579,-8.395,0.165,-5.424,-0.259,106.04,60.211,,,
2.185,-0.0044,3.459,-0.0742,8.6134,-321.0784,5.1821,31.5,98928.0,,,,,,,,,,
2.19,,,,,,,,,138.108,-8.543,0.15,-5.188,-0.264,106.3,60.036,,,
2.195,0.0293,3.4487,-0.083,9.7339,-322.0588,5.3221,31.5,98905.0,,,,,,,,,,
2.2,,,,,,,,,138.632,-8.685,0.134,-4.947,-0.268,106.55,59.842,,,
2.205,0.002,3.4399,-0.0635,10.084,-322.8291,5.4622,31.5,98892.0,,,,,,,,,,
2.21,,,,,,,,,139.152,-8.82,0.117,-4.701,-0.272,106.97,59.609,,,
2.215,0.0,3.4248,-0.0693,10.4342,-323.8796,5.6022,31.5,98889.0,,,,,,,,,,
2.22,,,,,,,,,139.668,-8.949,0.099,-4.451,-0.276,107.57,59.414,,,
2.225,-0.0098,3.4106,-0.063,10.5042,-325.7703,5.6723,31.5,98868.0,,,,,,,,,,
2.23,,,,,,,,,140.182,-9.071,0.081,-4.197,-0.279,109.1,59.22,,,
2.235,-0.0347,3.394,-0.0713,11.3445,-326.8207,5.3922,31.5,98872.0,,,,,,,,,,
2.24,,,,,,,,,140.693,-9.187,0.063,-3.938,-0.283,110.2,59.064,,,
2.245,-0.0112,3.3896,-0.061,12.1849,-327.2409,5.112,31.5,98873.0,,,,,,,,,,
2.25,,,,,,,,,141.202,-9.295,0.045,-3.675,-0.285,111.05,58.86,,,
2.255,-0.0425,3.3862,-0.061,12.605,-327.8711,4.7619,31.5,98838.0,,,,,,,,,,
2.26,,,,,,,,,141.707,-9.396,0.025,-3.408,-0.287,112.15,58.685,39.38999557495117,-8.289280891418457,9.0
2.265,-0.0396,3.3696,-0.041,12.6751,-328.3613,4.1317,31.5,98823.0,,,,,,,,,,
2.27,,,,,,,,,142.207,-9.49,0.006,-3.138,-0.288,112.41,58.384,,,
2.275,-0.0171,3.3599,-0.0449,12.2549,-328.1513,3.5714,31.5,98821.0,,,,,,,,,,
2.28,,,,,,,,,142.704,-9.576,-0.013,-2.865,-0.288,113.77,58.102,,,
2.285,-0.0488,3.3564,-0.0352,12.395,-328.6415,3.1513,31.5,98794.0,,,,,,,,,,
2.29,,,,,,,,,143.194,-9.654,-0.032,-2.59,-0.288,113.85,57.771,,,
2.295,-0.0454,3.3496,-0.0278,12.7451,-329.2017,2.591,31.5,98780.0,,,,,,,,,,
2.3,,,,,,,,,143.682,-9.724,-0.051,-2.313,-0.287,114.19,57.684,,,
2.305,-0.0342,3.3428,-0.02,12.6751,-329.4818,1.8908,31.5,98770.0,,,,,,,,,,
2.31,,,,,,,,,144.17,-9.786,-0.07,-2.033,-0.286,116.74,57.616,,,
2.315,-0.0425,3.3301,-0.0156,12.8151,-329.4818,1.3305,31.5,98769.0,,,,,,,,,,
2.32,,,,,,,,,144.654,-9.84,-0.089,-1.751,-0.283,118.01,57.285,,,
2.325,-0.0264,3.3198,-0.0078,11.7647,-329.4818,0.9804,31.5,98746.0,,,,,,,,,,
2.33,,,,,,,,,145.134,-9.887,-0.108,-1.468,-0.28,118.18,57.091,,,
2.335,-0.0356,3.3096,0.0156,11.2745,-329.2717,0.7003,31.5,98747.0,,,,,,,,,,
2.34,,,,,,,,,145.614,-9.925,-0.126,-1.183,-0.276,120.47,57.022,,,
2.345,-0.0205,3.2974,0.0186,10.2941,-329.6218,0.2101,31.5,98741.0,,,,,,,,,,
2.35,,,,,,,,,146.092,-9.954,-0.143,-0.898,-0.272,121.66,56.886,,,
2.355,0.0083,3.2881,-0.0039,9.3838,-330.5322,0.1401,31.5,98735.0,,,,,,,,,,
2.36,,,,,,,,,146.567,-9.976,-0.16,-0.612,-0.268,122.51,56.75,,,
2.365,-0.0332,3.2798,0.0273,8.8235,-330.9524,0.2801,31.5,98690.0,,,,,,,,,,
2.37,,,,,,,,,147.036,-9.989,-0.175,-0.324,-0.263,122.6,56.497,,,
2.375,0.0078,3.2783,0.0073,8.5434,-331.6527,0.3501,31.5,98669.0,,,,,,,,,,
2.38,,,,,,,,,147.504,-9.994,-0.19,-0.035,-0.258,124.47,56.293,,,
2.385,-0.0015,3.2646,-0.0127,7.3529,-332.2129,0.7003,31.5,98658.0,,,,,,,,,,
2.39,,,,,,,,,147.967,-9.991,-0.204,0.253,-0.253,124.55,56.089,,,
2.395,-0.0181,3.2588,0.0278,6.7227,-333.0532,0.9104,31.5,98660.0,,,,,,,,,,
2.4,,,,,,,,,148.425,-9.979,-0.217,0.542,-0.248,124.98,55.846,,,
2.405,0.0127,3.2607,-0.0093,7.1429,-333.6835,1.1204,31.5,98623.0,,,,,,,,,,
2.41,,,,,,,,,148.879,-9.959,-0.23,0.831,-0.242,125.49,55.661,,,
2.415,0.0044,3.2461,-0.0117,5.8824,-334.4538,1.5406,31.5,98644.0,,,,,,,,,,
2.42,,,,,,,,,149.335,-9.931,-0.243,1.121,-0.237,129.31,55.496,,,
2.425,0.0122,3.2344,0.0122,4.902,-335.4342,2.0308,31.5,98628.0,,,,,,,,,,
2.43,,,,,,,,,149.791,-9.894,-0.254,1.41,-0.232,131.1,55.467,,,
2.435,0.0103,3.2285,-0.0352,5.5322,-336.5546,2.591,31.5,98612.0,,,,,,,,,,
2.44,,,,,,,,,150.243,-9.848,-0.264,1.699,-0.227,131.87,55.195,,,
2.445,0.0088,3.2207,0.0005,4.6218,-337.1148,3.1513,31.5,98587.0,,,,,,,,,,
2.45,,,,,,,,,150.691,-9.794,-0.275,1.987,-0.222,132.03,55.117,,,
2.455,0.0298,3.2144,-0.0068,5.3221,-337.535,3.7815,31.5,98532.0,,,,,,,,,,
2.46,,,,,,,,,151.138,-9.731,-0.284,2.275,-0.218,133.23,55.078,39.38999557495117,-8.2892427444458,11.0
2.465,0.0093,3.2085,-0.0415,5.6723,-338.4454,4.6218,31.5,98563.0,,,,,,,,,,
2.47,,,,,,,,,151.582,-9.659,-0.293,2.56,-0.214,134.59,54.825,,,
2.475,-0.002,3.2017,-0.0288,5.3221,-339.5658,5.3221,31.5,98545.0,,,,,,,,,,
2.48,,,,,,,,,152.02,-9.579,-0.303,2.844,-0.21,135.01,54.592,,,
2.485,-0.0073,3.1909,-0.0171,5.042,-340.1961,5.7423,31.5,98557.0,,,,,,,,,,
2.49,,,,,,,,,152.457,-9.491,-0.312,3.127,-0.207,135.95,54.475,,,
2.495,-0.0269,3.1851,-0.0503,4.902,-340.8263,6.2325,31.5,98530.0,,,,,,,,,,
2.5,,,,,,,,,152.892,-9.393,-0.32,3.407,-0.204,138.07,54.32,,,
2.505,-0.0386,3.1812,-0.0283,6.0224,-340.1261,6.4426,31.5,98514.0,,,,,,,,,,
2.51,,,,,,,,,153.327,-9.288,-0.327,3.685,-0.201,140.12,54.193,,,
2.515,-0.0269,3.1753,-0.0366,5.8824,-339.916,6.4426,31.5,98529.0,,,,,,,,,,
2.52,,,,,,,,,153.758,-9.174,-0.336,3.959,-0.198,140.63,54.077,,,
2.525,-0.0361,3.1641,-0.0454,6.1625,-339.8459,6.4426,31.5,98534.0,,,,,,,,,,
2.53,,,,,,,,,154.187,-9.052,-0.343,4.229,-0.195,141.65,53.94,,,
2.535,-0.0439,3.1533,-0.0444,6.6527,-339.6359,6.5126,31.5,98498.0,,,,,,,,,,
2.54,,,,,,,,,154.612,-8.923,-0.351,4.496,-0.193,142.59,53.727,,,
2.545,-0.0483,3.145,-0.0381,6.9328,-339.0756,6.4426,31.5,98496.0,,,,,,,,,,
2.55,,,,,,,,,155.033,-8.785,-0.359,4.759,-0.19,142.76,53.61,,,
2.555,-0.064,3.1294,-0.0371,7.2829,-339.0756,6.2325,31.5,98482.0,,,,,,,,,,
2.56,,,,,,,,,155.449,-8.64,-0.366,5.016,-0.187,142.93,53.532,,,
2.565,-0.0625,3.1226,-0.0415,7.8431,-338.3053,5.9524,31.5,98453.0,,,,,,,,,,
2.57,,,,,,,,,155.862,-8.488,-0.374,5.27,-0.184,143.01,53.415,,,
2.575,-0.0679,3.1157,-0.0381,6.7927,-337.395,5.4622,31.5,98457.0,,,,,,,,,,
2.58,,,,,,,,,156.271,-8.328,-0.382,5.518,-0.181,144.29,53.192,,,
2.585,-0.0786,3.1079,-0.0332,7.3529,-336.1345,4.972,31.5,98450.0,,,,,,,,,,
2.59,,,,,,,,,156.677,-8.162,-0.389,5.761,-0.176,145.65,52.978,,,
2.595,-0.0771,3.1021,-0.0352,7.7031,-335.014,4.4118,31.5,98437.0,,,,,,,,,,
2.6,,,,,,,,,157.078,-7.989,-0.396,5.998,-0.172,145.82,52.813,,,
2.605,-0.083,3.0996,-0.0347,8.0532,-333.8936,3.8515,31.5,98429.0,,,,,,,,,,
2.61,,,,,,,,,157.475,-7.81,-0.404,6.229,-0.167,147.01,52.501,,,
2.615,-0.0894,3.0938,-0.0381,7.3529,-332.8431,3.3613,31.5,98420.0,,,,,,,,,,
2.62,,,,,,,,,157.872,-7.625,-0.411,6.454,-0.162,149.15,52.365,,,
2.625,-0.0928,3.0923,-0.0332,7.1429,-331.0224,2.7311,31.5,98407.0,,,,,,,,,,
2.63,,,,,,,,,158.264,-7.434,-0.418,6.673,-0.157,149.48,52.229,,,
2.635,-0.0806,3.082,-0.0317,7.6331,-329.6218,2.1008,31.5,98401.0,,,,,,,,,,
2.64,,,,,,,,,158.652,-7.238,-0.425,6.884,-0.15,149.74,52.074,,,
2.645,-0.0845,3.0654,-0.0122,6.3025,-327.591,0.9104,31.5,98380.0,,,,,,,,,,
2.65,,,,,,,,,159.037,-7.037,-0.433,7.09,-0.144,150.85,51.957,,,
2.655,-0.0796,3.0576,-0.0239,6.7927,-325.9104,0.4902,31.5,98375.0,,,,,,,,,,
2.66,,,,,,,,,159.42,-6.831,-0.439,7.288,-0.136,151.53,51.908,,,
2.665,-0.085,3.0522,-0.0098,6.4426,-324.0896,0.0,31.5,98352.0,,,,,,,,,,
2.67,,,,,,,,,159.799,-6.621,-0.446,7.479,-0.128,152.3,51.792,,,
2.675,-0.0776,3.0439,-0.0181,5.5322,-322.7591,-0.4202,31.5,98361.0,,,,,,,,,,
2.68,,,,,,,,,160.177,-6.406,-0.453,7.663,-0.119,153.41,51.763,,,
2.685,-0.0693,3.0356,-0.0161,5.9524,-322.3389,-0.7003,31.5,98335.0,,,,,,,,,,
2.69,,,,,,,,,160.55,-6.188,-0.459,7.841,-0.109,153.92,51.558,,,
2.695,-0.0679,3.0269,-0.0063,4.7619,-321.4286,-0.9804,31.5,98326.0,,,,,,,,,,
2.7,,,,,,,,,160.92,-5.965,-0.465,8.011,-0.1,155.71,51.228,,,
2.705,-0.0591,3.0269,-0.0264,4.902,-320.4482,-0.9104,31.5,98331.0,,,,,,,,,,
2.71,,,,,,,,,161.285,-5.737,-0.471,8.175,-0.089,156.13,51.072,,,
2.715,-0.0723,3.0278,-0.0132,3.2913,-320.098,-0.9104,31.5,98340.0,,,,,,,,,,
2.72,,,,,,,,,161.649,-5.506,-0.476,8.333,-0.079,157.33,50.965,,,
2.725,-0.0571,3.0181,-0.0259,2.0308,-319.6078,-0.9104,31.5,98294.0,,,,,,,,,,
2.73,,,,,,,,,162.008,-5.271,-0.479,8.483,-0.067,158.09,50.8,,,
2.735,-0.0522,3.0024,-0.0205,1.7507,-318.8375,-0.7003,31.5,98257.0,,,,,,,,,,
2.74,,,,,,,,,162.365,-5.033,-0.482,8.627,-0.055,159.12,50.635,,,
2.745,-0.0625,2.9946,-0.019,2.6611,-318.5574,-0.4902,31.5,98267.0,,,,,,,,,,
2.75,,,,,,,,,162.717,-4.791,-0.485,8.763,-0.042,159.54,50.479,,,
2.755,-0.0601,2.9863,-0.0254,2.3109,-317.3669,-0.2101,31.5,98257.0,,,,,,,,,,
2.76,,,,,,,,,163.065,-4.545,-0.487,8.893,-0.03,159.88,50.46,,,
2.765,-0.0698,2.9878,-0.0415,2.0308,-316.9468,-0.07,31.5,98230.0,,,,,,,,,,
2.77,,,,,,,,,163.411,-4.297,-0.488,9.016,-0.018,160.31,50.46,,,
2.775,-0.0508,2.9819,-0.0352,0.7703,-315.8964,0.07,31.5,98242.0,,,,,,,,,,
2.78,,,,,,,,,163.757,-4.046,-0.489,9.131,-0.006,163.04,50.285,,,
2.785,-0.064,2.9829,-0.0479,0.3501,-314.986,0.3501,31.5,98212.0,,,,,,,,,,
2.79,,,,,,,,,164.102,-3.793,-0.489,9.239,0.006,165.34,49.974,,,
2.795,-0.0703,2.98,-0.0635,-0.6303,-314.1457,0.6303,31.5,98210.0,,,,,,,,,,
2.8,,,,,,,,,164.444,-3.538,-0.488,9.34,0.02,166.2,49.818,,,
2.805,-0.062,2.9683,-0.0518,1.5406,-313.4454,0.7003,31.5,98194.0,,,,,,,,,,
2.81,,,,,,,,,164.78,-3.281,-0.486,9.433,0.034,166.2,49.682,,,
2.815,-0.0854,2.9653,-0.0586,1.1905,-313.0952,0.7003,31.5,98190.0,,,,,,,,,,
2.82,,,,,,,,,165.115,-3.021,-0.484,9.52,0.046,167.48,49.653,,,
2.825,-0.0762,2.9575,-0.0576,-0.2801,-313.1653,0.5602,31.5,98179.0,,,,,,,,,,
2.83,,,,,,,,,165.447,-2.76,-0.482,9.599,0.058,168.5,49.585,,,
2.835,-0.0625,2.9541,-0.0591,-0.6303,-311.9048,0.5602,31.5,98166.0,,,,,,,,,,
2.84,,,,,,,,,165.78,-2.497,-0.48,9.67,0.072,170.04,49.565,,,
2.845,-0.0801,2.9453,-0.0552,0.3501,-312.1148,0.6303,31.5,98135.0,,,,,,,,,,
2.85,,,,,,,,,166.108,-2.233,-0.477,9.735,0.086,170.21,49.526,,,
2.855,-0.0669,2.9297,-0.0649,1.3305,-310.8543,0.6303,31.5,98141.0,,,,,,,,,,
2.86,,,,,,,,,166.433,-1.967,-0.473,9.792,0.099,171.57,49.293,,,
2.865,-0.0835,2.9287,-0.0527,0.07,-310.5742,0.6303,31.5,98116.0,,,,,,,,,,
2.87,,,,,,,,,166.754,-1.701,-0.47,9.842,0.111,171.92,49.235,,,
2.875,-0.0708,2.9209,-0.0493,1.6106,-309.6639,0.6303,31.5,98118.0,,,,,,,,,,
2.88,,,,,,,,,167.072,-1.433,-0.466,9.884,0.124,172.86,49.079,,,
2.885,-0.0742,2.918,-0.0718,-0.4202,-309.1036,0.7003,31.5,98097.0,,,,,,,,,,
2.89,,,,,,,,,167.388,-1.166,-0.462,9.92,0.135,173.97,49.011,,,
2.895,-0.0996,2.9077,-0.061,0.07,-308.5434,0.5602,31.5,98104.0,,,,,,,,,,
2.9,,,,,,,,,167.703,-0.898,-0.457,9.947,0.148,176.1,48.836,,,
2.905,-0.0684,2.8975,-0.0488,1.7507,-308.4034,0.2101,31.5,98055.0,,,,,,,,,,
2.91,,,,,,,,,168.013,-0.63,-0.452,9.968,0.161,176.61,48.525,,,
2.915,-0.0742,2.8936,-0.0708,1.1204,-307.423,0.2801,31.5,98045.0,,,,,,,,,,
2.92,,,,,,,,,168.322,-0.361,-0.447,9.981,0.172,178.07,48.506,,,
2.925,-0.0898,2.8862,-0.0508,0.1401,-306.7227,0.07,31.5,98040.0,,,,,,,,,,
2.93,,,,,,,,,168.625,-0.093,-0.442,9.988,0.183,178.24,48.35,,,
2.935,-0.0664,2.8789,-0.0527,0.7003,-306.0224,0.0,31.5,98069.0,,,,,,,,,,
2.94,,,,,,,,,168.927,0.173,-0.437,9.987,0.195,179.26,48.292,,,
2.945,-0.0967,2.8735,-0.0723,1.4006,-305.112,0.0,31.5,97995.0,,,,,,,,,,
2.95,,,,,,,,,169.224,0.44,-0.431,9.978,0.207,179.86,48.087,,,
2.955,-0.0693,2.877,-0.0503,0.8403,-303.8515,-0.2101,31.5,98024.0,,,,,,,,,,
2.96,,,,,,,,,169.52,0.705,-0.425,9.963,0.217,182.25,47.883,39.38998794555664,-8.289146423339844,11.0
2.965,-0.0718,2.8706,-0.0493,0.2101,-304.4118,-0.2801,31.5,97993.0,,,,,,,,,,
2.97,,,,,,,,,169.815,0.969,-0.419,9.941,0.228,183.45,47.806,,,
2.975,-0.0898,2.8618,-0.0723,0.2101,-304.1317,-0.4202,31.5,97995.0,,,,,,,,,,
2.98,,,,,,,,,170.107,1.233,-0.413,9.912,0.239,184.3,47.66,,,
2.985,-0.0693,2.853,-0.0562,-0.7003,-303.5014,-0.4902,31.5,97975.0,,,,,,,,,,
2.99,,,,,,,,,170.393,1.495,-0.407,9.875,0.251,184.73,47.514,,,
2.995,-0.0859,2.8511,-0.0605,-0.9104,-303.1513,-0.5602,31.5,97950.0,,,,,,,,,,
3.0,,,,,,,,,170.679,1.756,-0.4,9.832,0.262,186.1,47.475,,,
3.005,-0.0864,2.8389,-0.0693,0.1401,-302.1709,-0.6303,31.5,97932.0,,,,,,,,,,
3.01,,,,,,,,,170.967,2.016,-0.394,9.782,0.274,188.58,47.407,,,
3.015,-0.063,2.8286,-0.0557,-0.8403,-301.8207,-0.8403,31.5,97941.0,,,,,,,,,,
3.02,,,,,,,,,171.249,2.273,-0.387,9.726,0.284,188.58,47.349,,,
3.025,-0.0742,2.8232,-0.0586,-0.8403,-302.451,-0.9804,31.5,97892.0,,,,,,,,,,
3.03,,,,,,,,,171.526,2.528,-0.38,9.663,0.296,188.75,47.174,,,
3.035,-0.0786,2.8218,-0.063,0.2101,-301.7507,-0.9804,31.5,97906.0,,,,,,,,,,
3.04,,,,,,,,,171.802,2.782,-0.373,9.592,0.306,190.29,46.999,,,
3.045,-0.0654,2.8198,-0.0659,1.6807,-300.8403,-0.8403,31.5,97868.0,,,,,,,,,,
3.05,,,,,,,,,172.078,3.034,-0.365,9.516,0.316,192.43,46.96,,,
3.055,-0.0757,2.8164,-0.0547,0.3501,-299.5098,-0.7703,31.5,97870.0,,,,,,,,,,
3.06,,,,,,,,,172.349,3.282,-0.357,9.433,0.325,193.2,46.717,39.38998794555664,-8.289146423339844,11.0
3.065,-0.0752,2.8213,-0.0708,1.1905,-300.2101,-0.7703,31.5,97837.0,,,,,,,,,,
3.07,,,,,,,,,172.617,3.528,-0.349,9.344,0.334,193.97,46.512,,,
3.075,-0.061,2.812,-0.0723,-1.1905,-300.1401,-0.7703,31.5,97832.0,,,,,,,,,,
3.08,,,,,,,,,172.885,3.771,-0.34,9.248,0.342,196.19,46.405,,,
3.085,-0.0601,2.8018,-0.0479,-0.07,-300.6303,-0.7003,31.5,97820.0,,,,,,,,,,
3.09,,,,,,,,,173.151,4.012,-0.332,9.146,0.352,197.39,46.376,,,
3.095,-0.0645,2.79,-0.0791,-1.1905,-301.6807,-0.6303,31.5,97808.0,,,,,,,,,,
3.1,,,,,,,,,173.418,4.251,-0.323,9.038,0.361,199.27,46.367,,,
3.105,-0.0576,2.7822,-0.0659,-0.4202,-302.2409,-0.4902,31.5,97791.0,,,,,,,,,,
3.11,,,,,,,,,173.682,4.487,-0.314,8.923,0.371,199.45,46.337,,,
3.115,-0.0635,2.7812,-0.0557,0.07,-302.521,-0.2101,31.5,97790.0,,,,,,,,,,
3.12,,,,,,,,,173.947,4.721,-0.305,8.801,0.379,202.1,46.269,,,
3.125,-0.0566,2.7803,-0.0903,0.9104,-302.2409,-0.07,31.5,97746.0,,,,,,,,,,
3.13,,,,,,,,,174.208,4.952,-0.295,8.674,0.388,202.53,46.182,,,
3.135,-0.0488,2.7715,-0.0771,-1.3305,-302.8011,0.07,31.5,97743.0,,,,,,,,,,
3.14,,,,,,,,,174.466,5.179,-0.284,8.54,0.395,203.56,45.978,,,
3.145,-0.0615,2.7695,-0.0781,1.4706,-303.6415,0.4202,31.5,97745.0,,,,,,,,,,
3.15,,,,,,,,,174.72,5.402,-0.274,8.4,0.404,204.58,45.744,,,
3.155,-0.0483,2.7612,-0.105,-0.1401,-303.7815,0.7003,31.5,97711.0,,,,,,,,,,
3.16,,,,,,,,,174.972,5.623,-0.263,8.254,0.411,206.04,45.589,39.38996887207031,-8.289102554321289,11.0
3.165,-0.0498,2.7534,-0.0874,0.4202,-303.8515,0.9104,31.5,97714.0,,,,,,,,,,
3.17,,,,,,,,,175.22,5.84,-0.251,8.102,0.418,206.12,45.569,,,
3.175,-0.0566,2.7451,-0.0923,1.4006,-304.5518,1.1905,31.5,97715.0,,,,,,,,,,
3.18,,,,,,,,,175.474,6.052,-0.239,7.944,0.426,209.9,45.55,,,
3.185,-0.0576,2.7461,-0.0996,1.7507,-304.8319,1.3305,31.5,97704.0,,,,,,,,,,
3.19,,,,,,,,,175.722,6.261,-0.226,7.781,0.432,209.98,45.375,,,
3.195,-0.0562,2.7339,-0.1006,4.3417,-305.112,1.6807,31.5,97703.0,,,,,,,,,,
3.2,,,,,,,,,175.966,6.466,-0.213,7.612,0.438,210.15,45.336,,,
3.205,-0.0547,2.7222,-0.1045,3.5014,-305.6723,1.8207,31.5,97625.0,,,,,,,,,,
3.21,,,,,,,,,176.21,6.666,-0.198,7.437,0.442,212.55,45.171,,,
3.215,-0.0566,2.728,-0.0879,1.6807,-304.2017,1.8908,31.5,97588.0,,,,,,,,,,
3.22,,,,,,,,,176.449,6.862,-0.183,7.257,0.446,212.64,45.015,,,
3.225,-0.0728,2.7251,-0.0962,5.2521,-303.5014,1.8908,31.5,97575.0,,,,,,,,,,
3.23,,,,,,,,,176.682,7.052,-0.169,7.072,0.452,212.89,44.869,,,
3.235,-0.0352,2.7227,-0.1045,3.9916,-301.8207,1.9608,31.5,97595.0,,,,,,,,,,
3.24,,,,,,,,,176.913,7.237,-0.153,6.883,0.454,213.49,44.85,,,
3.245,-0.0771,2.7202,-0.0776,5.5322,-301.4006,2.0308,31.5,97592.0,,,,,,,,,,
3.25,,,,,,,,,177.138,7.416,-0.137,6.69,0.458,213.58,44.626,,,
3.255,-0.0464,2.7139,-0.1035,5.9524,-301.6106,1.9608,31.5,97577.0,,,,,,,,,,
3.26,,,,,,,,,177.375,7.589,-0.121,6.493,0.46,220.27,44.51,39.38994598388672,-8.289047241210938,11.0
3.265,-0.062,2.7109,-0.0854,6.4426,-301.8908,1.8207,31.5,97537.0,,,,,,,,,,
3.27,,,,,,,,,177.616,7.758,-0.103,6.292,0.461,222.84,44.451,,,
3.275,-0.0552,2.7002,-0.0776,7.9132,-301.5406,1.7507,31.5,97526.0,,,,,,,,,,
3.28,,,,,,,,,177.852,7.921,-0.086,6.085,0.462,223.1,44.403,,,
3.285,-0.0557,2.7002,-0.0918,5.7423,-301.6807,1.7507,31.5,97521.0,,,,,,,,,,
3.29,,,,,,,,,178.084,8.078,-0.068,5.875,0.461,223.45,44.393,,,
3.295,-0.0703,2.6982,-0.0527,6.7227,-301.4006,1.8207,31.5,97489.0,,,,,,,,,,
3.3,,,,,,,,,178.314,8.23,-0.051,5.661,0.462,224.39,44.354,,,
3.305,-0.0327,2.6899,-0.0674,7.7031,-301.2605,1.6807,31.5,97482.0,,,,,,,,,,
3.31,,,,,,,,,178.54,8.376,-0.033,5.443,0.461,224.56,44.228,,,
3.315,-0.0547,2.6831,-0.0605,6.7227,-303.3613,1.6106,31.5,97475.0,,,,,,,,,,
3.32,,,,,,,,,178.769,8.516,-0.015,5.221,0.46,227.82,44.169,,,
3.325,-0.0566,2.6729,-0.0337,5.3922,-302.451,1.6106,31.5,97445.0,,,,,,,,,,
3.33,,,,,,,,,178.995,8.651,0.002,4.994,0.459,228.76,43.955,,,
3.335,-0.0303,2.6719,-0.0605,6.3725,-302.9412,1.6807,31.5,97439.0,,,,,,,,,,
3.34,,,,,,,,,179.218,8.78,0.018,4.764,0.458,229.2,43.955,,,
3.345,-0.0542,2.6694,-0.0415,6.4426,-302.9412,1.7507,31.5,97400.0,,,,,,,,,,
3.35,,,,,,,,,179.444,8.902,0.036,4.53,0.456,231.94,43.917,,,
3.355,-0.0288,2.6641,-0.0381,6.5826,-303.1513,1.8908,31.5,97417.0,,,,,,,,,,
3.36,,,,,,,,,179.665,9.019,0.053,4.294,0.454,232.54,43.751,,,
3.365,-0.0405,2.6592,-0.063,5.4622,-303.2213,2.1709,31.5,97370.0,,,,,,,,,,
3.37,,,,,,,,,179.883,9.129,0.071,4.054,0.452,233.15,43.615,,,
3.375,-0.0342,2.6548,-0.041,5.3221,-302.6611,2.451,31.5,97355.0,,,,,,,,,,
3.38,,,,,,,,,180.101,9.233,0.088,3.811,0.45,235.72,43.411,,,
3.385,-0.0254,2.646,-0.0459,3.4314,-302.591,2.8711,31.5,97359.0,,,,,,,,,,
3.39,,,,,,,,,180.317,9.33,0.104,3.566,0.448,236.24,43.392,,,
3.395,-0.0464,2.6455,-0.0576,4.6218,-304.6919,3.0812,31.5,97343.0,,,,,,,,,,
3.4,,,,,,,,,180.533,9.421,0.119,3.319,0.447,238.13,43.343,,,
3.405,-0.0337,2.644,-0.0425,4.902,-303.5014,3.5014,31.5,97334.0,,,,,,,,,,
3.41,,,,,,,,,180.748,9.506,0.136,3.067,0.445,239.59,43.236,,,
3.415,-0.0347,2.6401,-0.041,4.6919,-303.7815,3.8515,31.5,97291.0,,,,,,,,,,
3.42,,,,,,,,,180.965,9.584,0.152,2.815,0.443,242.17,43.139,,,
3.425,-0.0503,2.6392,-0.0659,4.4118,-305.3221,4.1317,31.5,97273.0,,,,,,,,,,
3.43,,,,,,,,,181.179,9.655,0.168,2.56,0.442,243.11,43.051,,,
3.435,-0.041,2.6309,-0.0454,4.7619,-304.972,4.3417,31.5,97296.0,,,,,,,,,,
3.44,,,,,,,,,181.388,9.719,0.184,2.302,0.44,243.46,42.876,,,
3.445,-0.0498,2.6235,-0.0552,3.8515,-306.5826,4.4818,31.5,97249.0,,,,,,,,,,
3.45,,,,,,,,,181.596,9.777,0.2,2.042,0.438,244.49,42.866,,,
3.455,-0.0469,2.6177,-0.0649,4.7619,-306.3025,4.7619,31.5,97240.0,,,,,,,,,,
3.46,,,,,,,,,181.801,9.828,0.216,1.78,0.436,245.26,42.837,39.389930725097656,-8.2889986038208,12.0
3.465,-0.064,2.6128,-0.0518,3.7815,-306.0224,4.972,31.5,97233.0,,,,,,,,,,
3.47,,,,,,,,,182.011,9.871,0.232,1.517,0.433,248.53,42.76,,,
3.475,-0.0659,2.6035,-0.0649,4.0616,-305.6723,4.972,31.5,97224.0,,,,,,,,,,
3.48,,,,,,,,,182.218,9.908,0.247,1.253,0.431,248.96,42.74,,,
3.485,-0.0625,2.605,-0.0537,4.1317,-306.1625,4.972,31.5,97206.0,,,,,,,,,,
3.49,,,,,,,,,182.423,9.938,0.262,0.988,0.428,250.51,42.575,,,
3.495,-0.0708,2.606,-0.0479,5.042,-306.1625,4.8319,31.5,97186.0,,,,,,,,,,
3.5,,,,,,,,,182.628,9.96,0.277,0.722,0.425,252.57,42.429,,,
3.505,-0.083,2.6025,-0.0557,5.4622,-306.3025,4.7619,31.5,97186.0,,,,,,,,,,
3.51,,,,,,,,,182.83,9.976,0.292,0.456,0.422,253.35,42.312,,,
3.515,-0.0674,2.6011,-0.0498,3.5714,-305.4622,4.6218,31.5,97185.0,,,,,,,,,,
3.52,,,,,,,,,183.028,9.984,0.308,0.189,0.418,253.95,42.215,,,
3.525,-0.0859,2.5918,-0.0366,4.7619,-305.8824,4.4818,31.5,97126.0,,,,,,,,,,
3.53,,,,,,,,,183.223,9.985,0.322,-0.076,0.414,254.73,42.079,,,
3.535,-0.0967,2.5854,-0.0366,3.2213,-305.112,4.2017,31.5,97118.0,,,,,,,,,,
3.54,,,,,,,,,183.417,9.98,0.336,-0.342,0.409,256.27,42.06,,,
3.545,-0.0835,2.583,-0.043,4.8319,-304.7619,3.9216,31.5,97134.0,,,,,,,,,,
3.55,,,,,,,,,183.613,9.967,0.349,-0.608,0.404,258.0,42.03,,,
3.555,-0.0952,2.5781,-0.0195,2.451,-306.3025,3.5714,31.5,97117.0,,,,,,,,,,
3.56,,,,,,,,,183.803,9.947,0.364,-0.873,0.399,258.0,42.011,,,
3.565,-0.0996,2.5674,-0.0317,3.1513,-305.7423,3.2213,31.5,97091.0,,,,,,,,,,
3.57,,,,,,,,,183.99,9.92,0.376,-1.138,0.392,258.08,41.982,,,
3.575,-0.0923,2.562,-0.0254,3.5714,-304.6919,3.0112,31.5,97089.0,,,,,,,,,,
3.58,,,,,,,,,184.183,9.885,0.388,-1.402,0.385,262.48,41.797,,,
3.585,-0.0889,2.5483,-0.0103,2.381,-303.9216,2.8011,31.5,97040.0,,,,,,,,,,
3.59,,,,,,,,,184.372,9.844,0.4,-1.665,0.378,263.16,41.671,,,
3.595,-0.085,2.5483,-0.0132,1.8207,-303.3613,2.591,31.5,97034.0,,,,,,,,,,
3.6,,,,,,,,,184.559,9.797,0.411,-1.925,0.37,263.85,41.622,,,
3.605,-0.0986,2.5513,-0.0205,1.5406,-302.6611,2.451,31.5,97001.0,,,,,,,,,,
3.61,,,,,,,,,184.74,9.742,0.422,-2.184,0.362,263.94,41.525,,,
3.615,-0.0771,2.5488,-0.0166,1.2605,-301.8908,2.451,31.5,97000.0,,,,,,,,,,
3.62,,,,,,,,,184.922,9.681,0.431,-2.44,0.353,266.18,41.311,,,
3.625,-0.0874,2.5459,-0.0127,-0.2101,-302.3109,2.381,31.5,96972.0,,,,,,,,,,
3.63,,,,,,,,,185.099,9.613,0.441,-2.695,0.344,266.35,41.204,,,
3.635,-0.083,2.5444,-0.0205,0.1401,-300.9104,2.521,31.5,96995.0,,,,,,,,,,
3.64,,,,,,,,,185.282,9.539,0.448,-2.947,0.334,270.57,40.99,,,
3.645,-0.0571,2.5259,-0.0454,-0.7003,-300.3501,2.381,31.5,96965.0,,,,,,,,,,
3.65,,,,,,,,,185.462,9.458,0.456,-3.197,0.325,271.09,40.941,,,
3.655,-0.104,2.5835,-0.0254,-2.7311,-293.1373,2.591,31.5,96888.0,,,,,,,,,,
3.66,,,,,,,,,185.645,9.371,0.463,-3.444,0.314,273.94,40.932,39.389930725097656,-8.2889986038208,11.0
3.665,-0.0835,2.5596,-0.02,-1.8908,-293.9076,2.6611,31.5,96824.0,,,,,,,,,,
3.67,,,,,,,,,185.825,9.28,0.467,-3.683,0.304,274.02,40.932,,,
3.675,-0.106,2.5537,-0.0635,-2.9412,-294.6779,2.9412,31.5,96741.0,,,,,,,,,,
3.68,,,,,,,,,186.002,9.182,0.472,-3.919,0.293,274.45,40.932,,,
3.685,-0.0542,2.5518,-0.0161,-3.0112,-294.8179,3.2213,31.5,96661.0,,,,,,,,,,
3.69,,,,,,,,,186.18,9.079,0.475,-4.155,0.282,276.44,40.941,,,
3.695,-0.0825,2.5396,-0.0742,-2.9412,-296.1485,3.5014,31.5,96589.0,,,,,,,,,,
3.7,,,,,,,,,186.356,8.969,0.478,-4.387,0.271,277.04,40.99,,,
3.705,-0.0962,2.5308,-0.0884,-3.2913,-296.0084,3.8515,31.5,96569.0,,,,,,,,,,
3.71,,,,,,,,,186.547,8.852,0.481,-4.617,0.261,283.68,40.941,,,
3.715,-0.0732,2.5264,-0.0674,-3.0812,-295.4482,4.1317,31.5,96492.0,,,,,,,,,,
3.72,,,,,,,,,186.75,8.73,0.483,-4.845,0.25,289.21,40.883,,,
3.725,-0.1064,2.5205,-0.0869,-3.4314,-295.8683,4.4118,31.5,96485.0,,,,,,,,,,
3.73,,,,,,,,,186.971,8.603,0.485,-5.068,0.239,296.38,40.854,,,
3.735,-0.0942,2.5249,-0.0942,-4.3417,-295.028,4.4118,31.5,96445.0,,,,,,,,,,
3.74,,,,,,,,,187.206,8.469,0.486,-5.289,0.228,303.3,40.757,,,
3.745,-0.1079,2.5234,-0.1113,-2.2409,-296.3585,4.4818,31.5,96396.0,,,,,,,,,,
3.75,,,,,,,,,187.456,8.33,0.486,-5.506,0.217,309.52,40.757,,,
3.755,-0.1025,2.5117,-0.1157,0.2101,-296.2885,4.4118,31.5,96374.0,,,,,,,,,,
3.76,,,,,,,,,187.705,8.185,0.487,-5.719,0.206,311.25,40.582,39.38991928100586,-8.288944244384766,11.0
3.765,-0.1172,2.5107,-0.1045,2.8011,-295.8683,4.2717,31.5,96345.0,,,,,,,,,,
3.77,,,,,,,,,187.968,8.034,0.49,-5.929,0.197,317.92,40.494,,,
3.775,-0.1265,2.5146,-0.1265,0.8403,-294.958,4.0616,31.5,96325.0,,,,,,,,,,
3.78,,,,,,,,,188.228,7.878,0.494,-6.135,0.188,318.53,40.465,,,
3.785,-0.1191,2.5068,-0.1118,1.2605,-294.888,3.6415,31.5,96319.0,,,,,,,,,,
3.79,,,,,,,,,188.493,7.718,0.497,-6.336,0.179,321.99,40.436,,,
3.795,-0.1289,2.5068,-0.1187,3.7115,-295.3081,3.1513,31.5,96313.0,,,,,,,,,,
3.8,,,,,,,,,188.766,7.552,0.499,-6.533,0.169,326.24,40.378,,,
3.805,-0.1348,2.5024,-0.1133,3.2213,-295.3782,2.521,31.5,96274.0,,,,,,,,,,
3.81,,,,,,,,,189.038,7.381,0.504,-6.725,0.16,328.14,40.261,,,
3.815,-0.1279,2.5,-0.1064,2.8011,-294.1877,1.9608,31.5,96267.0,,,,,,,,,,
3.82,,,,,,,,,189.313,7.205,0.508,-6.913,0.15,330.66,40.203,,,
3.825,-0.1377,2.4863,-0.1128,3.7115,-294.4678,1.3305,31.5,96209.0,,,,,,,,,,
3.83,,,,,,,,,189.587,7.025,0.512,-7.096,0.14,332.39,40.183,,,
3.835,-0.1216,2.4819,-0.0972,4.0616,-293.6975,0.7003,31.5,96228.0,,,,,,,,,,
3.84,,,,,,,,,189.857,6.84,0.516,-7.274,0.13,332.91,40.105,,,
3.845,-0.1191,2.4795,-0.084,3.0112,-292.6471,0.1401,31.5,96169.0,,,,,,,,,,
3.85,,,,,,,,,190.124,6.652,0.521,-7.447,0.119,333.43,40.105,,,
3.855,-0.124,2.4756,-0.0996,3.1513,-293.0672,-0.3501,31.5,96174.0,,,,,,,,,,
3.86,,,,,,,,,190.395,6.459,0.525,-7.614,0.108,336.82,40.018,39.389892578125,-8.28889274597168,11.0
3.865,-0.1113,2.4702,-0.084,2.1709,-293.2073,-0.7703,31.5,96153.0,,,,,,,,,,
3.87,,,,,,,,,190.663,6.262,0.529,-7.777,0.096,337.42,39.969,,,
3.875,-0.0967,2.4658,-0.0957,4.2017,-292.0168,-1.0504,31.5,96108.0,,,,,,,,,,
3.88,,,,,,,,,190.933,6.061,0.533,-7.935,0.083,340.81,39.697,,,
3.885,-0.1074,2.46,-0.0952,3.2913,-291.9468,-1.2605,31.5,96109.0,,,,,,,,,,
3.89,,,,,,,,,191.203,5.857,0.537,-8.086,0.072,342.46,39.609,,,
3.895,-0.0874,2.4531,-0.0688,3.1513,-291.4566,-1.5406,31.5,96059.0,,,,,,,,,,
3.9,,,,,,,,,191.476,5.649,0.541,-8.233,0.06,345.49,39.561,,,
3.905,-0.0815,2.4512,-0.0884,4.6218,-292.0868,-1.6106,31.5,96048.0,,,,,,,,,,
3.91,,,,,,,,,191.744,5.437,0.545,-8.374,0.047,345.93,39.483,,,
3.915,-0.085,2.4482,-0.0713,4.2717,-292.437,-1.6106,31.5,96008.0,,,,,,,,,,
3.92,,,,,,,,,192.011,5.222,0.548,-8.51,0.036,347.32,39.376,,,
3.925,-0.0581,2.4409,-0.0688,4.6919,-292.0868,-1.4006,31.5,96007.0,,,,,,,,,,
3.93,,,,,,,,,192.283,5.003,0.552,-8.64,0.024,351.14,39.289,,,
3.935,-0.0615,2.4526,-0.083,2.9412,-293.5574,-1.1204,31.5,95979.0,,,,,,,,,,
3.94,,,,,,,,,192.55,4.781,0.555,-8.765,0.012,351.23,39.172,,,
3.945,-0.0688,2.4585,-0.063,0.7703,-292.7171,-0.7003,31.5,95949.0,,,,,,,,,,
3.95,,,,,,,,,192.823,4.555,0.557,-8.884,0.0,355.48,39.036,,,
3.955,-0.0342,2.4463,-0.0703,0.6303,-292.9972,-0.1401,31.5,95919.0,,,,,,,,,,
3.96,,,,,,,,,193.093,4.326,0.557,-8.998,-0.014,356.44,39.036,,,
3.965,-0.0449,2.4341,-0.0796,3.2213,-293.3473,0.6303,31.5,95892.0,,,,,,,,,,
3.97,,,,,,,,,193.37,4.095,0.557,-9.105,-0.028,359.92,39.026,,,
3.975,-0.0566,2.4316,-0.0503,2.1709,-294.3978,1.1204,31.5,95876.0,,,,,,,,,,
3.98,,,,,,,,,193.641,3.86,0.556,-9.207,-0.04,360.01,38.997,,,
3.985,-0.0288,2.4214,-0.0737,2.7311,-294.3978,1.8908,31.5,95882.0,,,,,,,,,,
3.99,,,,,,,,,193.913,3.623,0.554,-9.303,-0.052,362.44,38.939,,,
3.995,-0.0444,2.4233,-0.0713,1.2605,-294.958,2.6611,31.5,95841.0,,,,,,,,,,
4.0,,,,,,,,,194.188,3.382,0.552,-9.394,-0.064,365.05,38.9,,,
4.005,-0.0425,2.418,-0.061,1.6807,-295.6583,3.2913,31.5,95834.0,,,,,,,,,,
4.01,,,,,,,,,194.465,3.139,0.548,-9.478,-0.076,367.66,38.793,,,
4.015,-0.0415,2.4155,-0.0864,2.591,-296.8487,3.8515,31.5,95822.0,,,,,,,,,,
4.02,,,,,,,,,194.743,2.894,0.543,-9.556,-0.089,370.01,38.657,,,
4.025,-0.0552,2.4082,-0.0649,4.8319,-297.7591,4.4818,31.5,95796.0,,,,,,,,,,
4.03,,,,,,,,,195.017,2.645,0.538,-9.628,-0.1,370.88,38.608,,,
4.035,-0.0508,2.3979,-0.0718,3.5014,-297.619,4.972,31.5,95786.0,,,,,,,,,,
4.04,,,,,,,,,195.286,2.394,0.532,-9.693,-0.109,371.4,38.443,,,
4.045,-0.0625,2.3994,-0.0747,5.3221,-298.0392,5.3221,31.5,95751.0,,,,,,,,,,
4.05,,,,,,,,,195.559,2.142,0.525,-9.753,-0.119,374.45,38.404,,,
4.055,-0.0684,2.3892,-0.0732,4.4118,-297.8291,5.8123,31.5,95715.0,,,,,,,,,,
4.06,,,,,,,,,195.827,1.887,0.518,-9.805,-0.128,375.06,38.336,39.38985061645508,-8.288837432861328,6.0
4.065,-0.0825,2.3872,-0.0688,4.8319,-297.479,6.0924,31.5,95703.0,,,,,,,,,,
4.07,,,,,,,,,196.093,1.632,0.51,-9.851,-0.137,376.1,38.287,,,
4.075,-0.0815,2.3828,-0.0669,4.972,-298.0392,6.1625,31.5,95680.0,,,,,,,,,,
4.08,,,,,,,,,196.36,1.375,0.501,-9.891,-0.145,378.37,38.141,,,
4.085,-0.1069,2.3779,-0.0542,3.9916,-297.2689,6.0224,31.5,95684.0,,,,,,,,,,
4.09,,,,,,,,,196.622,1.117,0.492,-9.923,-0.154,379.24,37.966,,,
4.095,-0.1104,2.375,-0.0645,4.902,-295.028,5.8123,31.5,95658.0,,,,,,,,,,
4.1,,,,,,,,,196.888,0.86,0.483,-9.949,-0.163,382.29,37.937,,,
4.105,-0.106,2.3745,-0.0449,4.4818,-292.9972,5.6022,31.5,95630.0,,,,,,,,,,
4.11,,,,,,,,,197.156,0.603,0.474,-9.969,-0.171,385.42,37.762,,,
4.115,-0.1143,2.3721,-0.0337,4.4118,-291.7367,5.2521,31.5,95616.0,,,,,,,,,,
4.12,,,,,,,,,197.422,0.348,0.464,-9.981,-0.179,386.47,37.723,,,
4.125,-0.1123,2.3677,-0.0454,5.2521,-290.9664,4.902,31.5,95593.0,,,,,,,,,,
4.13,,,,,,,,,197.687,0.094,0.455,-9.987,-0.187,388.13,37.636,,,
4.135,-0.1289,2.3711,-0.041,4.8319,-288.7955,4.5518,31.5,95591.0,,,,,,,,,,
4.14,,,,,,,,,197.947,-0.159,0.446,-9.986,-0.195,388.48,37.539,,,
4.145,-0.1196,2.375,-0.0303,3.0812,-287.1148,4.1317,31.5,95564.0,,,,,,,,,,
4.15,,,,,,,,,198.206,-0.411,0.436,-9.979,-0.202,390.39,37.48,,,
4.155,-0.1191,2.3555,-0.0391,2.7311,-286.5546,3.6415,31.5,95535.0,,,,,,,,,,
4.16,,,,,,,,,198.468,-0.661,0.427,-9.966,-0.211,392.84,37.48,,,
4.165,-0.1279,2.3398,-0.0391,3.7115,-284.944,3.4314,31.5,95528.0,,,,,,,,,,
4.17,,,,,,,,,198.729,-0.91,0.418,-9.947,-0.22,394.06,37.471,,,
4.175,-0.1069,2.3501,-0.0293,2.7311,-282.9132,3.2213,31.5,95501.0,,,,,,,,,,
4.18,,,,,,,,,198.989,-1.157,0.409,-9.921,-0.228,396.07,37.422,,,
4.185,-0.1221,2.3413,-0.041,-0.07,-282.0728,3.0812,31.5,95459.0,,,,,,,,,,
4.19,,,,,,,,,199.245,-1.401,0.4,-9.89,-0.236,396.24,37.402,,,
4.195,-0.1221,2.3428,-0.0444,0.8403,-280.6022,2.8011,31.5,95474.0,,,,,,,,,,
4.2,,,,,,,,,199.502,-1.644,0.391,-9.852,-0.247,398.6,37.334,,,
4.205,-0.123,2.3364,-0.0332,2.451,-278.0812,2.6611,31.5,95437.0,,,,,,,,,,
4.21,,,,,,,,,199.758,-1.885,0.383,-9.809,-0.257,401.13,37.091,,,
4.215,-0.1294,2.3296,-0.0601,0.7003,-278.5014,2.3109,31.5,95424.0,,,,,,,,,,
4.22,,,,,,,,,200.011,-2.122,0.373,-9.761,-0.265,401.74,36.984,,,
4.225,-0.1182,2.3257,-0.0576,0.2101,-277.381,2.1008,31.5,95397.0,,,,,,,,,,
4.23,,,,,,,,,200.264,-2.359,0.365,-9.706,-0.274,404.1,36.839,,,
4.235,-0.1143,2.3281,-0.0518,0.2801,-275.7703,1.9608,31.5,95387.0,,,,,,,,,,
4.24,,,,,,,,,200.518,-2.593,0.356,-9.647,-0.283,406.45,36.809,,,
4.245,-0.1265,2.3276,-0.0806,-0.1401,-275.5602,1.7507,31.5,95375.0,,,,,,,,,,
4.25,,,,,,,,,200.771,-2.824,0.347,-9.581,-0.293,407.77,36.78,,,
4.255,-0.1118,2.3208,-0.0747,-0.4202,-273.8796,1.7507,31.5,95339.0,,,,,,,,,,
4.26,,,,,,,,,201.024,-3.054,0.339,-9.511,-0.302,409.69,36.712,39.38981246948242,-8.28878116607666,6.0
4.265,-0.1108,2.3125,-0.064,0.8403,-271.7787,1.6807,31.5,95336.0,,,,,,,,,,
4.27,,,,,,,,,201.273,-3.28,0.33,-9.435,-0.311,410.82,36.576,,,
4.275,-0.1338,2.3159,-0.0781,-0.3501,-271.1485,1.4006,31.5,95309.0,,,,,,,,,,
4.28,,,,,,,,,201.524,-3.503,0.321,-9.355,-0.319,413.18,36.547,,,
4.285,-0.126,2.3242,-0.0713,0.9804,-270.5182,1.2605,31.5,95295.0,,,,,,,,,,
4.29,,,,,,,,,201.772,-3.723,0.312,-9.269,-0.328,414.06,36.537,,,
4.295,-0.1118,2.3306,-0.0947,0.2101,-268.0672,1.4706,31.5,95275.0,,,,,,,,,,
4.3,,,,,,,,,202.018,-3.941,0.303,-9.179,-0.335,415.11,36.498,,,
4.305,-0.0942,2.2983,-0.0933,-0.5602,-267.577,1.3305,31.5,95228.0,,,,,,,,,,
4.31,,,,,,,,,202.268,-4.155,0.293,-9.084,-0.343,418.25,36.498,,,
4.315,-0.124,2.2891,-0.0845,0.9104,-267.577,1.2605,31.5,95236.0,,,,,,,,,,
4.32,,,,,,,,,202.513,-4.365,0.284,-8.985,-0.351,418.51,36.469,,,
4.325,-0.0957,2.2847,-0.0942,0.5602,-265.6162,1.3305,31.5,95207.0,,,,,,,,,,
4.33,,,,,,,,,202.759,-4.574,0.275,-8.88,-0.358,420.88,36.401,,,
4.335,-0.1143,2.2915,-0.0879,1.6106,-263.0952,1.4006,31.5,95213.0,,,,,,,,,,
4.34,,,,,,,,,203.003,-4.779,0.265,-8.772,-0.365,422.1,36.304,,,
4.345,-0.1201,2.2769,-0.0981,1.0504,-261.4846,1.3305,31.5,95166.0,,,,,,,,,,
4.35,,,,,,,,,203.246,-4.979,0.255,-8.66,-0.371,423.85,36.236,,,
4.355,-0.0908,2.2734,-0.0767,2.1709,-260.3641,1.2605,31.5,95172.0,,,,,,,,,,
4.36,,,,,,,,,203.492,-5.175,0.245,-8.544,-0.377,427.26,35.954,,,
4.365,-0.1157,2.2671,-0.0977,1.1204,-259.944,1.2605,31.5,95122.0,,,,,,,,,,
4.37,,,,,,,,,203.733,-5.368,0.235,-8.425,-0.382,427.96,35.818,,,
4.375,-0.1104,2.2715,-0.084,0.5602,-259.3838,1.1905,31.5,95111.0,,,,,,,,,,
4.38,,,,,,,,,203.971,-5.557,0.224,-8.301,-0.387,429.28,35.769,,,
4.385,-0.1055,2.2729,-0.0874,-0.6303,-257.1429,1.1905,31.5,95101.0,,,,,,,,,,
4.39,,,,,,,,,204.206,-5.744,0.214,-8.173,-0.393,429.8,35.682,,,
4.395,-0.1235,2.2739,-0.0889,-0.6303,-256.8627,1.1204,31.5,95080.0,,,,,,,,,,
4.4,,,,,,,,,204.442,-5.926,0.205,-8.042,-0.399,432.86,35.526,,,
4.405,-0.1152,2.2817,-0.0869,0.2101,-256.0924,0.8403,31.5,95048.0,,,,,,,,,,
4.41,,,,,,,,,204.675,-6.104,0.196,-7.907,-0.405,433.39,35.468,,,
4.415,-0.1021,2.2788,-0.0894,2.1008,-254.902,0.9104,31.5,95021.0,,,,,,,,,,
4.42,,,,,,,,,204.914,-6.28,0.186,-7.769,-0.41,437.25,35.468,,,
4.425,-0.126,2.2622,-0.0771,1.6807,-254.2017,0.7703,31.5,95025.0,,,,,,,,,,
4.43,,,,,,,,,205.15,-6.451,0.175,-7.627,-0.414,438.21,35.468,,,
4.435,-0.0928,2.2563,-0.0952,2.8711,-254.3417,0.7003,31.5,95003.0,,,,,,,,,,
4.44,,,,,,,,,205.383,-6.618,0.165,-7.482,-0.417,439.08,35.458,,,
4.445,-0.1128,2.248,-0.0806,3.3613,-254.8319,0.7703,31.5,94995.0,,,,,,,,,,
4.45,,,,,,,,,205.617,-6.783,0.153,-7.333,-0.42,440.93,35.448,,,
4.455,-0.1025,2.2461,-0.0757,1.4006,-253.7115,0.7003,31.5,94954.0,,,,,,,,,,
4.46,,,,,,,,,205.854,-6.944,0.142,-7.181,-0.422,443.73,35.419,39.3897705078125,-8.288719177246094,6.0
4.465,-0.0732,2.2383,-0.0791,2.381,-251.0504,0.8403,31.5,94925.0,,,,,,,,,,
4.47,,,,,,,,,206.091,-7.101,0.131,-7.025,-0.425,445.75,35.419,,,
4.475,-0.106,2.2295,-0.0645,3.2913,-252.3109,0.9804,31.5,94871.0,,,,,,,,,,
4.48,,,,,,,,,206.322,-7.254,0.12,-6.868,-0.427,446.1,35.234,,,
4.485,-0.0625,2.2314,-0.0806,3.0112,-252.7311,1.2605,31.5,94886.0,,,,,,,,,,
4.49,,,,,,,,,206.551,-7.403,0.108,-6.707,-0.429,447.68,35.118,,,
4.495,-0.0811,2.2441,-0.0664,2.381,-252.8011,1.6807,31.5,94868.0,,,,,,,,,,
4.5,,,,,,,,,206.776,-7.549,0.096,-6.542,-0.431,448.38,34.952,,,
4.505,-0.0864,2.2432,-0.0703,3.7815,-252.451,2.0308,31.5,94831.0,,,,,,,,,,
4.51,,,,,,,,,207.005,-7.692,0.084,-6.374,-0.433,451.97,34.913,,,
4.515,-0.0747,2.2427,-0.0815,2.9412,-251.4006,2.381,31.5,94840.0,,,,,,,,,,
4.52,,,,,,,,,207.237,-7.83,0.071,-6.203,-0.435,454.52,34.875,,,
4.525,-0.085,2.2446,-0.0669,1.1905,-251.8908,2.591,31.5,94791.0,,,,,,,,,,
4.53,,,,,,,,,207.474,-7.964,0.058,-6.03,-0.436,457.94,34.855,,,
4.535,-0.0869,2.2285,-0.0664,3.0112,-251.2605,2.9412,31.5,94776.0,,,,,,,,,,
4.54,,,,,,,,,207.709,-8.095,0.047,-5.854,-0.439,459.26,34.855,,,
4.545,-0.0806,2.2188,-0.0806,2.8711,-249.93,3.1513,31.5,94761.0,,,,,,,,,,
4.55,,,,,,,,,207.939,-8.221,0.034,-5.675,-0.441,459.52,34.845,,,
4.555,-0.0718,2.2036,-0.0586,2.591,-250.1401,3.5014,31.5,94715.0,,,,,,,,,,
4.56,,,,,,,,,208.171,-8.343,0.021,-5.494,-0.443,461.98,34.758,,,
4.565,-0.0889,2.1987,-0.064,2.451,-250.2801,3.7815,31.5,94723.0,,,,,,,,,,
4.57,,,,,,,,,208.398,-8.461,0.008,-5.311,-0.445,462.77,34.622,,,
4.575,-0.0796,2.2026,-0.0742,1.3305,-250.0,4.2017,31.5,94690.0,,,,,,,,,,
4.58,,,,,,,,,208.63,-8.574,-0.004,-5.125,-0.447,466.28,34.622,,,
4.585,-0.1016,2.1987,-0.0508,1.6807,-249.2297,4.5518,31.5,94660.0,,,,,,,,,,
4.59,,,,,,,,,208.86,-8.684,-0.017,-4.937,-0.45,467.6,34.563,,,
4.595,-0.0977,2.2002,-0.0791,0.9804,-249.2297,4.7619,31.5,94658.0,,,,,,,,,,
4.6,,,,,,,,,209.087,-8.789,-0.03,-4.747,-0.453,468.92,34.369,,,
4.605,-0.104,2.2002,-0.0737,3.0812,-248.8796,4.7619,31.5,94649.0,,,,,,,,,,
4.61,,,,,,,,,209.316,-8.89,-0.042,-4.554,-0.456,472.26,34.068,,,
4.615,-0.1147,2.1958,-0.0542,0.7003,-248.7395,4.8319,31.5,94587.0,,,,,,,,,,
4.62,,,,,,,,,209.541,-8.987,-0.056,-4.36,-0.457,472.96,34.048,,,
4.625,-0.1123,2.1938,-0.085,1.1905,-248.0392,4.8319,31.5,94588.0,,,,,,,,,,
4.63,,,,,,,,,209.766,-9.079,-0.068,-4.164,-0.46,475.16,34.0,,,
4.635,-0.1196,2.1899,-0.064,2.8011,-247.3389,4.6919,31.5,94584.0,,,,,,,,,,
4.64,,,,,,,,,209.995,-9.167,-0.08,-3.967,-0.462,477.8,34.0,,,
4.645,-0.1255,2.1875,-0.0654,2.451,-246.5686,4.5518,31.5,94545.0,,,,,,,,,,
4.65,,,,,,,,,210.218,-9.25,-0.094,-3.768,-0.463,477.97,33.97,,,
4.655,-0.1421,2.1831,-0.0903,3.5014,-248.2493,4.1317,31.5,94515.0,,,,,,,,,,
4.66,,,,,,,,,210.437,-9.329,-0.107,-3.568,-0.465,478.77,33.97,39.3897705078125,-8.288719177246094,6.0
4.665,-0.1313,2.1792,-0.0688,1.1204,-247.619,3.9216,31.5,94503.0,,,,,,,,,,
4.67,,,,,,,,,210.667,-9.404,-0.121,-3.365,-0.465,484.13,33.912,,,
4.675,-0.1401,2.1812,-0.0576,0.4202,-246.6387,3.5714,31.5,94500.0,,,,,,,,,,
4.68,,,,,,,,,210.892,-9.474,-0.132,-3.161,-0.465,484.22,33.873,,,
4.685,-0.1567,2.1724,-0.0806,0.1401,-245.8683,3.0112,31.5,94487.0,,,,,,,,,,
4.69,,,,,,,,,211.111,-9.54,-0.143,-2.956,-0.465,484.49,33.795,,,
4.695,-0.1157,2.1675,-0.0654,2.8711,-246.3585,2.591,31.5,94443.0,,,,,,,,,,
4.7,,,,,,,,,211.334,-9.601,-0.154,-2.751,-0.465,487.92,33.747,,,
4.705,-0.1553,2.1646,-0.0708,1.1905,-246.4286,2.1709,31.5,94436.0,,,,,,,,,,
4.71,,,,,,,,,211.559,-9.658,-0.166,-2.544,-0.463,490.56,33.659,,,
4.715,-0.1226,2.1592,-0.0786,-0.07,-245.2381,1.9608,31.5,94398.0,,,,,,,,,,
4.72,,,,,,,,,211.782,-9.71,-0.177,-2.336,-0.462,491.62,33.62,,,
4.725,-0.1431,2.1611,-0.0713,2.3109,-242.2969,1.8207,31.5,94407.0,,,,,,,,,,
4.73,,,,,,,,,211.999,-9.758,-0.187,-2.127,-0.46,491.88,33.582,,,
4.735,-0.1362,2.1602,-0.0728,2.8711,-241.1064,1.5406,31.5,94372.0,,,,,,,,,,
4.74,,,,,,,,,212.212,-9.801,-0.199,-1.921,-0.457,493.03,33.445,,,
4.745,-0.1104,2.1582,-0.084,1.8207,-241.0364,1.1204,31.5,94368.0,,,,,,,,,,
4.75,,,,,,,,,212.431,-9.839,-0.211,-1.714,-0.454,496.9,33.348,,,
4.755,-0.1455,2.1528,-0.0674,2.7311,-239.5658,1.0504,31.5,94320.0,,,,,,,,,,
4.76,,,,,,,,,212.646,-9.872,-0.222,-1.507,-0.45,497.52,33.29,39.389732360839844,-8.288656234741211,6.0
4.765,-0.1104,2.1465,-0.0928,3.7815,-237.8852,0.9804,31.5,94300.0,,,,,,,,,,
4.77,,,,,,,,,212.862,-9.902,-0.233,-1.3,-0.446,500.08,33.222,,,
4.775,-0.1255,2.1499,-0.0889,1.7507,-238.0952,0.8403,31.5,94292.0,,,,,,,,,,
4.78,,,,,,,,,213.075,-9.926,-0.245,-1.094,-0.442,500.87,33.202,,,
4.785,-0.1089,2.1411,-0.0796,2.7311,-235.6443,0.9104,31.5,94259.0,,,,,,,,,,
4.79,,,,,,,,,213.289,-9.947,-0.256,-0.888,-0.438,503.16,33.183,,,
4.795,-0.105,2.1426,-0.0918,1.3305,-234.5238,0.9804,31.5,94228.0,,,,,,,,,,
4.8,,,,,,,,,213.499,-9.963,-0.267,-0.683,-0.433,503.51,33.163,,,
4.805,-0.105,2.1382,-0.1016,2.3109,-234.6639,1.1204,31.5,94204.0,,,,,,,,,,
4.81,,,,,,,,,213.715,-9.975,-0.276,-0.479,-0.429,507.75,33.056,,,
4.815,-0.1089,2.1416,-0.0884,0.7703,-233.7535,1.2605,31.5,94200.0,,,,,,,,,,
4.82,,,,,,,,,213.93,-9.983,-0.287,-0.275,-0.424,509.51,32.998,,,
4.825,-0.0859,2.1699,-0.1045,1.9608,-233.7535,1.3305,31.5,94172.0,,,,,,,,,,
4.83,,,,,,,,,214.14,-9.986,-0.296,-0.071,-0.419,510.22,32.93,,,
4.835,-0.0698,2.1284,-0.0889,-0.5602,-234.3838,1.5406,31.5,94183.0,,,,,,,,,,
4.84,,,,,,,,,214.355,-9.985,-0.305,0.132,-0.415,513.13,32.93,,,
4.845,-0.0908,2.1123,-0.0981,2.9412,-232.3529,2.3109,31.5,94141.0,,,,,,,,,,
4.85,,,,,,,,,214.571,-9.98,-0.313,0.336,-0.41,515.86,32.852,,,
4.855,-0.1025,2.1084,-0.1025,2.8711,-231.4426,2.6611,31.5,94137.0,,,,,,,,,,
4.86,,,,,,,,,214.787,-9.971,-0.323,0.538,-0.406,517.98,32.833,39.389732360839844,-8.288656234741211,4.0
4.865,-0.082,2.1006,-0.1021,4.6919,-232.1429,2.7311,31.5,94090.0,,,,,,,,,,
4.87,,,,,,,,,214.999,-9.958,-0.333,0.74,-0.402,518.34,32.823,,,
4.875,-0.0981,2.0991,-0.0957,1.7507,-231.0224,3.0112,31.5,94062.0,,,,,,,,,,
4.88,,,,,,,,,215.21,-9.941,-0.345,0.941,-0.398,519.84,32.765,,,
4.885,-0.0889,2.0962,-0.0767,3.0812,-231.0224,3.2913,31.5,94046.0,,,,,,,,,,
4.89,,,,,,,,,215.415,-9.92,-0.353,1.142,-0.394,520.81,32.57,,,
4.895,-0.0889,2.0923,-0.0977,3.3613,-232.423,3.5714,31.5,94031.0,,,,,,,,,,
4.9,,,,,,,,,215.621,-9.895,-0.363,1.341,-0.39,523.55,32.25,,,
4.905,-0.1353,2.0898,-0.0649,4.6218,-229.6919,3.7815,31.5,93997.0,,,,,,,,,,
4.91,,,,,,,,,215.821,-9.865,-0.373,1.542,-0.386,523.9,32.172,,,
4.915,-0.0869,2.0889,-0.0869,3.7815,-228.5014,3.7815,31.5,93982.0,,,,,,,,,,
4.92,,,,,,,,,216.026,-9.832,-0.384,1.739,-0.382,528.05,32.016,,,
4.925,-0.1401,2.0908,-0.0503,4.2717,-229.1317,3.7815,31.5,93985.0,,,,,,,,,,
4.93,,,,,,,,,216.233,-9.795,-0.394,1.935,-0.379,530.53,31.987,,,
4.935,-0.1245,2.0859,-0.0601,4.4818,-226.1905,3.6415,31.5,93959.0,,,,,,,,,,
4.94,,,,,,,,,216.438,-9.754,-0.404,2.131,-0.375,531.94,31.929,,,
4.945,-0.1021,2.0776,-0.0737,4.6919,-223.7395,3.7115,31.5,93917.0,,,,,,,,,,
4.95,,,,,,,,,216.641,-9.71,-0.414,2.323,-0.371,533.27,31.851,,,
4.955,-0.147,2.0708,-0.0327,3.2913,-224.1597,3.5714,31.5,93902.0,,,,,,,,,,
4.96,,,,,,,,,216.847,-9.662,-0.424,2.512,-0.367,536.28,31.822,,,
4.965,-0.1333,2.0635,-0.0674,3.0112,-221.9888,3.3613,31.5,93872.0,,,,,,,,,,
4.97,,,,,,,,,217.05,-9.611,-0.432,2.701,-0.362,537.34,31.802,,,
4.975,-0.1255,2.0566,-0.0566,1.8908,-221.4286,3.0812,31.5,93856.0,,,,,,,,,,
4.98,,,,,,,,,217.248,-9.557,-0.44,2.886,-0.357,537.6,31.783,,,
4.985,-0.1807,2.0493,-0.0283,0.9804,-218.2073,2.9412,31.5,93828.0,,,,,,,,,,
4.99,,,,,,,,,217.447,-9.499,-0.447,3.071,-0.352,539.64,31.725,,,
4.995,-0.1211,2.0405,-0.0625,0.3501,-215.2661,2.521,31.5,93812.0,,,,,,,,,,
5.0,,,,,,,,,217.649,-9.439,-0.454,3.251,-0.346,543.35,31.559,,,
5.005,-0.1455,2.0391,-0.0435,0.4202,-215.3361,2.1709,31.5,93768.0,,,,,,,,,,
5.01,,,,,,,,,217.848,-9.376,-0.459,3.428,-0.34,544.68,31.423,,,
5.015,-0.1528,2.0376,-0.0396,1.2605,-214.5658,1.8207,31.5,93742.0,,,,,,,,,,
5.02,,,,,,,,,218.048,-9.31,-0.465,3.604,-0.333,547.34,31.277,,,
5.025,-0.1196,2.0483,-0.0562,2.0308,-214.916,1.6106,31.5,93728.0,,,,,,,,,,
5.03,,,,,,,,,218.245,-9.241,-0.471,3.777,-0.326,548.75,31.141,,,
5.035,-0.1343,2.0493,-0.0601,-0.5602,-213.4454,1.6106,31.5,93733.0,,,,,,,,,,
5.04,,,,,,,,,218.443,-9.168,-0.478,3.95,-0.319,551.24,30.995,,,
5.045,-0.1328,2.0518,-0.0503,-0.7703,-210.9244,1.6106,31.5,93675.0,,,,,,,,,,
5.05,,,,,,,,,218.639,-9.093,-0.482,4.12,-0.311,552.65,30.995,,,
5.055,-0.1255,2.0591,-0.0508,-0.4202,-209.7339,1.5406,31.5,93659.0,,,,,,,,,,
5.06,,,,,,,,,218.841,-9.015,-0.486,4.287,-0.304,556.55,30.995,,,
5.065,-0.1221,2.0576,-0.0635,-1.6106,-210.084,1.5406,31.5,93654.0,,,,,,,,,,
5.07,,,,,,,,,219.045,-8.935,-0.49,4.452,-0.296,558.86,30.995,,,
5.075,-0.1182,2.0576,-0.0747,-1.1905,-208.1933,1.7507,31.5,93635.0,,,,,,,,,,
5.08,,,,,,,,,219.245,-8.852,-0.493,4.615,-0.287,559.65,30.995,,,
5.085,-0.124,2.0552,-0.0762,0.4202,-207.7031,1.8908,31.5,93619.0,,,,,,,,,,
5.09,,,,,,,,,219.441,-8.767,-0.496,4.775,-0.279,560.1,30.995,,,
5.095,-0.1201,2.0435,-0.0776,0.2101,-205.6022,2.0308,31.5,93596.0,,,,,,,,,,
5.1,,,,,,,,,219.646,-8.679,-0.5,4.933,-0.272,564.8,31.044,,,
5.105,-0.1357,2.0171,-0.1021,-0.7703,-203.3613,2.1709,31.5,93564.0,,,,,,,,,,
5.11,,,,,,,,,219.849,-8.589,-0.504,5.088,-0.264,566.22,31.044,,,
5.115,-0.1411,1.9937,-0.0835,0.2101,-203.0812,2.1709,31.5,93524.0,,,,,,,,,,
5.12,,,,,,,,,220.048,-8.497,-0.506,5.24,-0.256,566.66,31.044,,,
5.125,-0.1431,1.9653,-0.0864,-0.4202,-199.93,2.0308,31.5,93539.0,,,,,,,,,,
5.13,,,,,,,,,220.246,-8.403,-0.509,5.39,-0.249,568.34,31.044,,,
5.135,-0.1426,1.9385,-0.0879,0.4902,-199.3697,1.7507,31.5,93490.0,,,,,,,,,,
5.14,,,,,,,,,220.443,-8.308,-0.512,5.536,-0.241,569.77,31.044,,,
5.145,-0.1367,1.8999,-0.1118,-0.1401,-198.5994,1.4706,31.5,93470.0,,,,,,,,,,
5.15,,,,,,,,,220.639,-8.21,-0.515,5.68,-0.234,571.81,30.879,,,
5.155,-0.1445,1.8755,-0.1108,0.4202,-196.3585,1.2605,31.5,93475.0,,,,,,,,,,
5.16,,,,,,,,,220.832,-8.11,-0.518,5.821,-0.226,574.65,30.354,,,
5.165,-0.1343,1.835,-0.1123,-0.5602,-195.6583,1.0504,31.5,93433.0,,,,,,,,,,
5.17,,,,,,,,,221.021,-8.009,-0.521,5.96,-0.218,576.87,29.887,,,
5.175,-0.1182,1.8003,-0.1147,3.2213,-192.2269,1.0504,31.5,93414.0,,,,,,,,,,
5.18,,,,,,,,,221.203,-7.906,-0.523,6.096,-0.209,578.2,29.323,,,
5.185,-0.1421,1.7646,-0.1084,3.2913,-192.577,0.8403,31.5,93402.0,,,,,,,,,,
5.19,,,,,,,,,221.383,-7.803,-0.528,6.227,-0.203,581.22,28.788,,,
5.195,-0.1216,1.7261,-0.1255,5.3922,-189.986,0.6303,31.5,93406.0,,,,,,,,,,
5.2,,,,,,,,,221.554,-7.697,-0.532,6.358,-0.196,582.55,28.02,,,
5.205,-0.1196,1.6963,-0.1255,1.6106,-190.6162,0.3501,31.5,93345.0,,,,,,,,,,
5.21,,,,,,,,,221.715,-7.59,-0.538,6.484,-0.191,583.0,27.534,,,
5.215,-0.1055,1.665,-0.1304,2.381,-189.8459,0.2801,31.5,93361.0,,,,,,,,,,
5.22,,,,,,,,,221.873,-7.481,-0.542,6.61,-0.183,586.29,26.727,,,
5.225,-0.1021,1.6343,-0.1206,2.0308,-187.3249,0.5602,31.5,93310.0,,,,,,,,,,
5.23,,,,,,,,,222.022,-7.37,-0.546,6.733,-0.175,587.97,26.037,,,
5.235,-0.1265,1.6084,-0.0869,2.7311,-188.5154,0.4202,31.5,93296.0,,,,,,,,,,
5.24,,,,,,,,,222.161,-7.259,-0.549,6.853,-0.168,588.69,25.327,,,
5.245,-0.0825,1.5786,-0.1016,6.0224,-187.535,0.4902,31.5,93291.0,,,,,,,,,,
5.25,,,,,,,,,222.288,-7.145,-0.553,6.971,-0.16,589.04,24.559,,,
5.255,-0.0996,1.5552,-0.0928,6.2325,-187.2549,0.5602,31.5,93266.0,,,,,,,,,,
5.26,,,,,,,,,222.414,-7.03,-0.558,7.087,-0.155,592.69,23.966,39.389732360839844,-8.288656234741211,0.0
5.265,-0.0806,1.5278,-0.0703,7.563,-187.7451,0.7003,31.5,93225.0,,,,,,,,,,
5.27,,,,,,,,,222.532,-6.913,-0.564,7.201,-0.15,594.11,23.344,,,
5.275,-0.0371,1.5049,-0.1104,5.8824,-188.0252,1.1204,31.5,93194.0,,,,,,,,,,
5.28,,,,,,,,,222.648,-6.794,-0.57,7.313,-0.146,597.22,22.731,,,
5.285,-0.0771,1.4839,-0.0601,4.2017,-186.6246,1.9608,31.5,93180.0,,,,,,,,,,
5.29,,,,,,,,,222.757,-6.672,-0.574,7.424,-0.141,598.47,22.216,,,
5.295,-0.0962,1.4561,-0.0796,3.4314,-188.9356,2.3109,31.5,93133.0,,,,,,,,,,
5.3,,,,,,,,,222.855,-6.55,-0.577,7.532,-0.135,598.91,21.623,,,
5.305,-0.0542,1.4307,-0.1104,4.5518,-188.6555,2.6611,31.5,93124.0,,,,,,,,,,
5.31,,,,,,,,,222.949,-6.425,-0.579,7.639,-0.129,601.14,21.156,,,
5.315,-0.1001,1.4033,-0.0474,6.3025,-190.056,2.8711,31.5,93123.0,,,,,,,,,,
5.32,,,,,,,,,223.044,-6.298,-0.582,7.744,-0.123,604.79,20.612,,,
5.325,-0.0938,1.3716,-0.0601,8.2633,-188.8655,3.0112,31.5,93084.0,,,,,,,,,,
5.33,,,,,,,,,223.136,-6.168,-0.585,7.847,-0.119,607.55,20.155,,,
5.335,-0.1064,1.3369,-0.0347,6.2325,-188.3053,3.0812,31.5,93028.0,,,,,,,,,,
5.34,,,,,,,,,223.222,-6.038,-0.589,7.948,-0.117,608.8,19.737,,,
5.345,-0.0996,1.3008,-0.0615,3.8515,-188.5854,2.8711,31.5,93005.0,,,,,,,,,,
5.35,,,,,,,,,223.309,-5.906,-0.591,8.046,-0.113,612.99,19.182,,,
5.355,-0.0894,1.2637,-0.0488,6.5126,-188.3754,2.9412,31.5,92990.0,,,,,,,,,,
5.36,,,,,,,,,223.388,-5.773,-0.593,8.142,-0.107,613.79,18.677,,,
5.365,-0.0913,1.23,-0.0215,8.4734,-187.8852,2.9412,31.5,92956.0,,,,,,,,,,
5.37,,,,,,,,,223.456,-5.638,-0.595,8.236,-0.103,613.88,18.132,,,
5.375,-0.1079,1.1929,-0.0176,5.6723,-189.2857,2.9412,31.5,92938.0,,,,,,,,,,
5.38,,,,,,,,,223.522,-5.501,-0.598,8.328,-0.101,617.35,17.5,,,
5.385,-0.0918,1.1309,-0.0166,6.2325,-186.5546,2.9412,31.5,92903.0,,,,,,,,,,
5.39,,,,,,,,,223.59,-5.363,-0.6,8.418,-0.096,622.35,16.81,,,
5.395,-0.1172,1.0889,-0.0034,2.3109,-184.7339,3.1513,31.5,92921.0,,,,,,,,,,
5.4,,,,,,,,,223.651,-5.224,-0.602,8.504,-0.092,624.4,16.091,,,
5.405,-0.1025,1.0557,0.0039,5.4622,-185.4342,3.1513,31.5,92857.0,,,,,,,,,,
5.41,,,,,,,,,223.704,-5.087,-0.602,8.587,-0.085,625.74,15.352,,,
5.415,-0.1265,1.0283,-0.0024,3.9916,-184.4538,3.0812,31.5,92820.0,,,,,,,,,,
5.42,,,,,,,,,223.752,-4.947,-0.603,8.669,-0.081,628.77,14.681,,,
5.425,-0.1094,0.9917,-0.0391,1.2605,-184.4538,3.0812,31.5,92795.0,,,,,,,,,,
5.43,,,,,,,,,223.792,-4.806,-0.603,8.747,-0.075,630.38,13.942,,,
5.435,-0.1182,0.9561,0.0063,0.4202,-183.3333,3.0812,31.5,92767.0,,,,,,,,,,
5.44,,,,,,,,,223.819,-4.665,-0.602,8.824,-0.067,631.9,12.707,,,
5.445,-0.1216,0.917,-0.0269,2.521,-182.2829,2.9412,31.5,92755.0,,,,,,,,,,
5.45,,,,,,,,,223.836,-4.523,-0.6,8.898,-0.059,633.5,11.871,,,
5.455,-0.1113,0.8813,-0.0532,-2.591,-181.5826,2.8711,31.5,92737.0,,,,,,,,,,
5.46,,,,,,,,,223.853,-4.38,-0.599,8.969,-0.052,637.61,11.21,,,
5.465,-0.1064,0.8418,-0.0229,-3.7815,-180.7423,2.9412,31.5,92706.0,,,,,,,,,,
5.47,,,,,,,,,223.868,-4.238,-0.596,9.037,-0.041,640.92,10.666,,,
5.475,-0.105,0.8062,-0.0527,1.0504,-182.9832,2.7311,31.5,92658.0,,,,,,,,,,
5.48,,,,,,,,,223.877,-4.095,-0.593,9.103,-0.03,643.15,9.936,,,
5.485,-0.1113,0.7671,-0.0879,-1.1905,-181.1625,2.8711,31.5,92655.0,,,,,,,,,,
5.49,,,,,,,,,223.881,-3.949,-0.591,9.167,-0.022,645.65,9.227,,,
5.495,-0.1162,0.7217,-0.0264,-2.1709,-180.5322,3.0112,31.5,92616.0,,,,,,,,,,
5.5,,,,,,,,,223.873,-3.804,-0.588,9.229,-0.012,646.73,8.449,,,
5.505,-0.1333,0.6758,-0.0439,0.1401,-181.0924,3.0112,31.5,92611.0,,,,,,,,,,
5.51,,,,,,,,,223.858,-3.658,-0.585,9.288,-0.002,648.34,7.739,,,
5.515,-0.1362,0.6318,-0.0967,-2.1709,-180.6022,2.591,31.5,92595.0,,,,,,,,,,
5.52,,,,,,,,,223.837,-3.511,-0.582,9.345,0.006,651.11,6.952,,,
5.525,-0.1255,0.5996,-0.0562,1.0504,-179.8319,2.1709,31.5,92573.0,,,,,,,,,,
5.53,,,,,,,,,223.816,-3.363,-0.579,9.399,0.016,655.4,6.242,,,
5.535,-0.1772,0.5508,-0.0859,1.4706,-180.3221,1.8207,31.5,92551.0,,,,,,,,,,
5.54,,,,,,,,,223.782,-3.215,-0.577,9.451,0.024,655.67,5.464,,,
5.545,-0.1299,0.5073,-0.0796,-1.1905,-179.972,1.2605,31.5,92512.0,,,,,,,,,,
5.55,,,,,,,,,223.743,-3.066,-0.575,9.5,0.032,659.16,4.56,,,
5.555,-0.1309,0.4663,-0.0732,-0.7703,-180.1821,0.9104,31.5,92480.0,,,,,,,,,,
5.56,,,,,,,,,223.69,-2.916,-0.573,9.547,0.042,659.61,3.646,,,
5.565,-0.1421,0.4248,-0.1025,2.591,-178.9916,0.6303,31.5,92449.0,,,,,,,,,,
5.57,,,,,,,,,223.628,-2.766,-0.571,9.592,0.052,661.04,2.771,,,
5.575,-0.103,0.3833,-0.0791,-1.1204,-179.5518,0.4202,31.5,92454.0,,,,,,,,,,
5.58,,,,,,,,,223.558,-2.615,-0.569,9.634,0.059,663.01,2.129,,,
5.585,-0.1309,0.3403,-0.0806,3.0112,-179.3417,0.4902,31.5,92436.0,,,,,,,,,,
5.59,,,,,,,,,223.479,-2.464,-0.568,9.674,0.069,664.98,1.157,,,
5.595,-0.1294,0.3008,-0.0913,-0.9804,-179.2717,0.3501,31.5,92380.0,,,,,,,,,,
5.6,,,,,,,,,223.396,-2.312,-0.566,9.712,0.075,668.48,0.292,,,
5.605,-0.1064,0.2637,-0.0791,-1.6807,-179.2017,0.1401,31.5,92397.0,,,,,,,,,,
5.61,,,,,,,,,223.307,-2.16,-0.564,9.747,0.085,671.34,-0.525,,,
5.615,-0.1421,0.2271,-0.0786,-1.1905,-179.902,-0.1401,31.5,92341.0,,,,,,,,,,
5.62,,,,,,,,,223.211,-2.007,-0.562,9.779,0.096,673.68,-1.351,,,
5.625,-0.1382,0.1924,-0.1006,-0.7703,-179.902,-0.6303,31.5,92324.0,,,,,,,,,,
5.63,,,,,,,,,223.102,-1.854,-0.56,9.81,0.106,674.12,-2.178,,,
5.635,-0.1006,0.1626,-0.0913,2.1008,-179.4818,-1.1905,31.5,92305.0,,,,,,,,,,
5.64,,,,,,,,,222.982,-1.699,-0.558,9.837,0.116,675.29,-3.033,,,
5.645,-0.1294,0.1299,-0.0679,3.3613,-182.423,-1.6807,31.5,92301.0,,,,,,,,,,
5.65,,,,,,,,,222.858,-1.545,-0.558,9.863,0.124,678.79,-3.821,,,
5.655,-0.1118,0.1001,-0.0825,1.4006,-180.2521,-2.1008,31.5,92246.0,,,,,,,,,,
5.66,,,,,,,,,222.726,-1.388,-0.557,9.886,0.13,680.31,-4.56,39.389732360839844,-8.288656234741211,3.0
5.665,-0.0674,0.0693,-0.084,1.2605,-181.6527,-2.451,31.5,92230.0,,,,,,,,,,
5.67,,,,,,,,,222.591,-1.232,-0.557,9.907,0.138,683.81,-5.289,,,
5.675,-0.0718,0.0464,-0.0728,-1.1905,-180.5322,-2.1008,31.5,92230.0,,,,,,,,,,
5.68,,,,,,,,,222.448,-1.074,-0.556,9.925,0.147,685.34,-5.979,,,
5.685,-0.0703,0.0234,-0.0679,0.1401,-183.5434,-2.381,31.5,92199.0,,,,,,,,,,
5.69,,,,,,,,,222.298,-0.918,-0.556,9.94,0.157,687.04,-6.572,,,
5.695,-0.0459,0.0088,-0.0713,2.6611,-183.1232,-2.0308,31.5,92182.0,,,,,,,,,,
5.7,,,,,,,,,222.137,-0.759,-0.555,9.954,0.167,687.4,-7.224,,,
5.705,-0.0342,-0.0083,-0.0781,5.3221,-185.7143,-1.6807,31.5,92137.0,,,,,,,,,,
5.71,,,,,,,,,221.978,-0.599,-0.554,9.965,0.174,692.34,-7.817,,,
5.715,-0.0322,-0.0278,-0.0737,3.9916,-187.8151,-1.1905,31.5,92136.0,,,,,,,,,,
5.72,,,,,,,,,221.812,-0.437,-0.552,9.973,0.179,693.78,-8.429,,,
5.725,-0.0381,-0.043,-0.0679,2.6611,-190.4062,-0.5602,31.5,92060.0,,,,,,,,,,
5.73,,,,,,,,,221.635,-0.274,-0.55,9.979,0.185,693.78,-8.886,,,
5.735,-0.0386,-0.0562,-0.0767,3.4314,-189.7059,0.2101,31.5,92049.0,,,,,,,,,,
5.74,,,,,,,,,221.456,-0.108,-0.547,9.982,0.192,696.56,-9.343,,,
5.745,-0.0088,-0.0669,-0.0747,1.5406,-191.3866,1.0504,31.5,92029.0,,,,,,,,,,
5.75,,,,,,,,,221.273,0.057,-0.544,9.983,0.198,698.09,-9.635,,,
5.755,-0.0278,-0.0796,-0.0723,2.9412,-195.098,1.6106,31.5,91962.0,,,,,,,,,,
5.76,,,,,,,,,221.092,0.224,-0.539,9.98,0.207,702.13,-9.975,,,
5.765,-0.0474,-0.0918,-0.0532,4.902,-198.0392,2.2409,31.5,91947.0,,,,,,,,,,
5.77,,,,,,,,,220.902,0.394,-0.534,9.975,0.214,702.22,-10.364,,,
5.775,-0.0522,-0.1006,-0.0581,5.5322,-199.7199,2.381,31.5,91913.0,,,,,,,,,,
5.78,,,,,,,,,220.724,0.566,-0.528,9.967,0.219,709.06,-10.666,,,
5.785,-0.0498,-0.106,-0.0571,4.4118,-201.4006,2.451,31.5,91873.0,,,,,,,,,,
5.79,,,,,,,,,220.54,0.74,-0.521,9.956,0.224,710.05,-10.928,,,
5.795,-0.0728,-0.1152,-0.0527,5.8824,-202.451,2.451,31.5,91858.0,,,,,,,,,,
5.8,,,,,,,,,220.353,0.915,-0.515,9.941,0.23,711.85,-11.142,,,
5.805,-0.0576,-0.1191,-0.021,2.6611,-204.4118,2.1709,31.5,91819.0,,,,,,,,,,
5.81,,,,,,,,,220.175,1.091,-0.508,9.924,0.235,717.88,-11.395,,,
5.815,-0.0679,-0.127,-0.0332,1.8908,-207.9132,2.0308,31.5,91760.0,,,,,,,,,,
5.82,,,,,,,,,219.993,1.268,-0.501,9.903,0.242,719.23,-11.638,,,
5.825,-0.0576,-0.1279,-0.0122,1.3305,-209.5938,1.6807,31.5,91754.0,,,,,,,,,,
5.83,,,,,,,,,219.812,1.447,-0.495,9.879,0.25,722.29,-11.813,,,
5.835,-0.0518,-0.1382,-0.0146,2.451,-211.2745,1.5406,31.5,91719.0,,,,,,,,,,
5.84,,,,,,,,,219.635,1.628,-0.488,9.851,0.259,725.89,-11.92,,,
5.845,-0.0449,-0.1401,-0.0103,2.7311,-213.6555,1.4006,31.5,91687.0,,,,,,,,,,
5.85,,,,,,,,,219.454,1.809,-0.482,9.819,0.266,727.25,-12.105,,,
5.855,-0.0596,-0.145,-0.0186,2.9412,-216.2465,1.2605,31.5,91665.0,,,,,,,,,,
5.86,,,,,,,,,219.276,1.992,-0.475,9.784,0.273,730.76,-12.182,,,
5.865,-0.0264,-0.144,-0.0215,1.6807,-220.098,1.1204,31.5,91635.0,,,,,,,,,,
5.87,,,,,,,,,219.107,2.176,-0.468,9.744,0.281,736.08,-12.338,,,
5.875,-0.0693,-0.1479,-0.021,3.9916,-222.8992,1.4706,31.5,95400.0,,,,,,,,,,
5.88,,,,,,,,,218.933,2.363,-0.461,9.701,0.289,736.62,-12.357,,,
5.885,0.0376,-0.1553,0.2793,4.1317,-236.5546,0.4202,31.5,91876.0,,,,,,,,,,
5.89,,,,,,,,,218.751,2.552,-0.453,9.653,0.295,736.62,-12.561,,,
5.895,-0.0864,-0.166,-0.3716,1.1905,-248.9496,2.0308,31.5,91670.0,,,,,,,,,,
5.9,,,,,,,,,218.563,2.75,-0.445,9.599,0.301,736.62,-12.6,,,
5.905,-0.085,-0.1611,0.0347,-0.1401,-241.6667,1.7507,31.5,91581.0,,,,,,,,,,
5.91,,,,,,,,,218.377,2.958,-0.437,9.537,0.311,739.78,-12.678,,,
5.915,0.002,-0.1914,-0.1104,2.9412,-244.958,1.5406,31.5,91561.0,,,,,,,,,,
5.92,,,,,,,,,218.193,3.159,-0.429,9.472,0.321,742.67,-12.698,,,
5.925,-0.0151,-0.1733,0.0107,1.2605,-245.5182,2.451,31.5,91520.0,,,,,,,,,,
5.93,,,,,,,,,218.008,3.361,-0.419,9.403,0.329,744.2,-12.756,,,
5.935,-0.0171,-0.2148,-0.0908,2.381,-243.1373,2.8011,31.5,91451.0,,,,,,,,,,
5.94,,,,,,,,,217.816,3.561,-0.41,9.329,0.338,744.65,-12.902,,,
5.945,-0.0283,-0.2163,-0.0903,2.2409,-245.8683,3.2913,31.5,91434.0,,,,,,,,,,
5.95,,,,,,,,,217.626,3.758,-0.4,9.251,0.346,747.36,-13.018,,,
5.955,0.0073,-0.2261,-0.0688,2.0308,-245.5882,3.9916,31.5,91403.0,,,,,,,,,,
5.96,,,,,,,,,217.443,3.956,-0.389,9.168,0.354,752.24,-13.116,,,
5.965,-0.0098,-0.2485,-0.0708,1.8908,-247.7591,4.972,31.5,91385.0,,,,,,,,,,
5.97,,,,,,,,,217.257,4.151,-0.377,9.082,0.363,754.04,-13.261,,,
5.975,-0.0659,-0.2612,-0.0796,0.8403,-245.5882,5.8824,31.5,91362.0,,,,,,,,,,
5.98,,,,,,,,,217.073,4.347,-0.364,8.99,0.372,757.75,-13.621,,,
5.985,-0.0376,-0.2705,-0.0864,2.381,-245.9384,5.7423,31.5,91292.0,,,,,,,,,,
5.99,,,,,,,,,216.897,4.538,-0.351,8.895,0.381,763.99,-14.088,,,
5.995,-0.0073,-0.2852,-0.1084,5.5322,-248.1793,6.1625,31.5,91294.0,,,,,,,,,,
6.0,,,,,,,,,216.718,4.728,-0.338,8.796,0.39,765.53,-14.117,,,
6.005,-0.0771,-0.3052,0.0239,5.042,-245.1681,6.3025,31.5,91204.0,,,,,,,,,,
6.01,,,,,,,,,216.54,4.917,-0.322,8.692,0.396,768.33,-14.312,,,
6.015,-0.0898,-0.3252,0.0605,3.5714,-243.2773,5.9524,31.5,91201.0,,,,,,,,,,
6.02,,,,,,,,,216.357,5.102,-0.307,8.585,0.402,769.96,-14.759,,,
6.025,-0.0776,-0.3369,0.0024,9.6639,-245.9384,5.1821,31.5,91145.0,,,,,,,,,,
6.03,,,,,,,,,216.17,5.283,-0.292,8.475,0.409,772.04,-15.012,,,
6.035,-0.1133,-0.3501,-0.0327,2.8711,-245.2381,4.6919,31.5,91123.0,,,,,,,,,,
6.04,,,,,,,,,215.994,5.464,-0.275,8.36,0.411,778.2,-15.196,,,
6.045,-0.0737,-0.3682,0.002,2.0308,-242.9272,4.2017,31.5,91106.0,,,,,,,,,,
6.05,,,,,,,,,215.809,5.641,-0.261,8.241,0.417,778.38,-15.488,,,
6.055,-0.0718,-0.3823,0.0732,8.1232,-243.5574,3.5014,31.5,91037.0,,,,,,,,,,
6.06,,,,,,,,,215.638,5.815,-0.249,8.12,0.424,786.35,-15.887,,,
6.065,-0.1294,-0.3911,0.0269,1.1204,-243.9776,2.8711,31.5,90991.0,,,,,,,,,,
6.07,,,,,,,,,215.457,5.986,-0.233,7.995,0.425,786.62,-16.285,,,
6.075,-0.0049,-0.3979,0.0229,1.4706,-239.0056,3.1513,31.5,90987.0,,,,,,,,,,
6.08,,,,,,,,,215.282,6.155,-0.221,7.866,0.431,791.7,-16.519,,,
6.085,0.0088,-0.3979,0.0107,1.8207,-241.8067,3.9916,31.5,90927.0,,,,,,,,,,
6.09,,,,,,,,,215.105,6.317,-0.209,7.736,0.437,793.7,-16.781,,,
6.095,-0.0786,-0.415,-0.0312,2.1008,-244.8179,4.7619,31.5,90912.0,,,,,,,,,,
6.1,,,,,,,,,214.922,6.479,-0.197,7.601,0.443,795.24,-17.141,,,
6.105,-0.0527,-0.416,0.0044,-3.9216,-244.5378,5.3221,31.5,90894.0,,,,,,,,,,
6.11,,,,,,,,,214.748,6.64,-0.183,7.461,0.449,801.5,-17.423,,,
6.115,-0.063,-0.4316,-0.0029,-1.0504,-243.6275,5.7423,31.5,90881.0,,,,,,,,,,
6.12,,,,,,,,,214.578,6.797,-0.172,7.317,0.459,805.68,-17.598,,,
6.125,-0.1074,-0.438,0.0083,-1.2605,-243.9076,5.6723,31.5,90880.0,,,,,,,,,,
6.13,,,,,,,,,214.402,6.951,-0.159,7.171,0.467,806.04,-17.734,,,
6.135,-0.1006,-0.4458,-0.0273,1.5406,-242.9972,5.042,31.5,90805.0,,,,,,,,,,
6.14,,,,,,,,,214.236,7.102,-0.147,7.022,0.475,811.49,-17.734,,,
6.145,-0.0986,-0.4595,-0.0195,-1.6106,-245.3782,4.4118,31.5,90800.0,,,,,,,,,,
6.15,,,,,,,,,214.063,7.249,-0.133,6.87,0.48,812.85,-18.074,,,
6.155,-0.1313,-0.4692,-0.0225,-1.4706,-247.3389,3.5714,31.5,90772.0,,,,,,,,,,
6.16,,,,,,,,,213.889,7.394,-0.121,6.713,0.487,814.49,-18.094,,,
6.165,-0.1245,-0.4746,-0.0303,2.7311,-246.4986,2.2409,31.5,90753.0,,,,,,,,,,
6.17,,,,,,,,,213.709,7.537,-0.109,6.552,0.494,815.67,-18.405,,,
6.175,-0.0845,-0.4741,-0.0674,2.8711,-246.7787,1.4006,31.5,90746.0,,,,,,,,,,
6.18,,,,,,,,,213.522,7.676,-0.096,6.388,0.496,815.76,-18.531,,,
6.185,-0.0581,-0.4678,0.0093,-0.3501,-244.6779,0.9104,31.5,90683.0,,,,,,,,,,
6.19,,,,,,,,,213.347,7.812,-0.083,6.221,0.498,822.58,-18.687,,,
6.195,-0.1035,-0.4814,-0.0405,1.7507,-246.5686,0.0,31.5,90707.0,,,,,,,,,,
6.2,,,,,,,,,213.164,7.943,-0.072,6.053,0.501,823.04,-18.959,,,
6.205,-0.0635,-0.4814,-0.0815,0.7703,-245.7283,-0.2801,31.5,90653.0,,,,,,,,,,
6.21,,,,,,,,,212.98,8.071,-0.06,5.881,0.502,825.59,-19.124,,,
6.215,-0.0435,-0.4805,-0.0752,1.3305,-244.4678,-0.4202,31.5,90632.0,,,,,,,,,,
6.22,,,,,,,,,212.796,8.196,-0.049,5.706,0.503,827.31,-19.153,,,
6.225,-0.0527,-0.4893,-0.0645,1.8908,-243.7675,-0.3501,31.4,90590.0,,,,,,,,,,
6.23,,,,,,,,,212.605,8.315,-0.038,5.53,0.503,827.95,-19.251,,,
6.235,-0.0352,-0.479,-0.1021,-5.5322,-244.1877,-0.1401,31.5,90563.0,,,,,,,,,,
6.24,,,,,,,,,212.419,8.431,-0.026,5.352,0.503,831.5,-19.26,,,
6.245,-0.0293,-0.4834,-0.1143,-0.2801,-243.6975,-0.07,31.5,90529.0,,,,,,,,,,
6.25,,,,,,,,,212.232,8.543,-0.02,5.171,0.507,833.68,-19.348,,,
6.255,-0.0151,-0.48,-0.0581,0.07,-244.3978,0.2801,31.5,90482.0,,,,,,,,,,
6.26,,,,,,,,,212.047,8.651,-0.01,4.988,0.507,836.42,-19.377,,,
6.265,-0.0181,-0.479,-0.0854,-0.6303,-244.5378,0.5602,31.5,90478.0,,,,,,,,,,
6.27,,,,,,,,,211.86,8.756,0.0,4.802,0.508,838.33,-19.377,,,
6.275,-0.022,-0.4775,-0.0845,0.9804,-244.1877,0.9804,31.5,90429.0,,,,,,,,,,
6.28,,,,,,,,,211.679,8.856,0.01,4.614,0.509,842.16,-19.377,,,
6.285,-0.02,-0.4863,-0.0825,2.521,-248.4594,1.2605,31.5,90416.0,,,,,,,,,,
6.29,,,,,,,,,211.499,8.953,0.022,4.425,0.509,844.62,-19.377,,,
6.295,-0.0142,-0.4814,-0.0698,5.2521,-249.3697,1.6106,31.5,90391.0,,,,,,,,,,
6.3,,,,,,,,,211.321,9.046,0.035,4.23,0.509,847.72,-19.377,,,
6.305,0.0098,-0.481,-0.1016,2.521,-251.8908,2.0308,31.5,90333.0,,,,,,,,,,
6.31,,,,,,,,,211.149,9.136,0.051,4.032,0.508,852.01,-19.377,,,
6.315,-0.019,-0.4834,-0.0786,5.3221,-252.1709,2.8011,31.5,90350.0,,,,,,,,,,
6.32,,,,,,,,,210.973,9.222,0.064,3.83,0.508,852.37,-19.387,,,
6.325,-0.0142,-0.4883,-0.0752,9.944,-254.2017,2.8711,31.5,90255.0,,,,,,,,,,
6.33,,,,,,,,,210.802,9.304,0.081,3.627,0.507,856.84,-19.387,,,
6.335,-0.022,-0.4873,-0.1035,8.6134,-254.4118,3.7815,31.5,90265.0,,,,,,,,,,
6.34,,,,,,,,,210.629,9.382,0.1,3.42,0.505,858.03,-19.396,,,
6.345,-0.0239,-0.4922,-0.0552,8.8235,-255.8123,3.5014,31.5,90216.0,,,,,,,,,,
6.35,,,,,,,,,210.456,9.456,0.119,3.211,0.503,860.31,-19.396,,,
6.355,0.0,-0.4888,-0.0469,6.5126,-256.2325,3.5714,31.4,90166.0,,,,,,,,,,
6.36,,,,,,,,,210.288,9.525,0.139,2.999,0.501,864.05,-19.435,,,
6.365,-0.0303,-0.4985,-0.0376,10.2941,-259.7339,3.9916,31.5,90150.0,,,,,,,,,,
6.37,,,,,,,,,210.117,9.589,0.156,2.786,0.5,865.61,-19.494,,,
6.375,-0.0312,-0.499,-0.0249,4.0616,-259.5938,4.2717,31.5,90103.0,,,,,,,,,,
6.38,,,,,,,,,209.957,9.65,0.176,2.568,0.497,871.82,-19.513,,,
6.385,-0.0186,-0.499,0.0107,10.2241,-262.8151,3.9916,31.5,90035.0,,,,,,,,,,
6.39,,,,,,,,,209.794,9.705,0.192,2.349,0.496,872.73,-19.532,,,
6.395,0.0005,-0.5024,0.0078,10.7143,-262.465,4.6218,31.5,90038.0,,,,,,,,,,
6.4,,,,,,,,,209.634,9.756,0.212,2.126,0.493,876.3,-19.542,,,
6.405,-0.0254,-0.5171,0.002,8.4034,-260.014,4.972,31.5,89978.0,,,,,,,,,,
6.41,,,,,,,,,209.48,9.802,0.233,1.902,0.49,880.87,-19.61,,,
6.415,-0.0254,-0.5122,0.0322,7.3529,-260.7143,5.4622,31.5,89942.0,,,,,,,,,,
6.42,,,,,,,,,209.323,9.842,0.251,1.68,0.488,882.34,-19.737,,,
6.425,-0.0103,-0.5195,0.0317,8.6835,-262.2549,5.7423,31.5,89948.0,,,,,,,,,,
6.43,,,,,,,,,209.172,9.877,0.269,1.456,0.486,886.64,-19.746,,,
6.435,-0.0171,-0.5186,0.0347,7.1429,-263.3053,6.1625,31.5,89888.0,,,,,,,,,,
6.44,,,,,,,,,209.032,9.908,0.288,1.229,0.484,892.59,-19.746,,,
6.445,-0.0327,-0.5171,0.0312,4.972,-264.5658,6.5826,31.5,89852.0,,,,,,,,,,
6.45,,,,,,,,,208.885,9.933,0.306,1.001,0.482,892.86,-19.814,,,
6.455,-0.0396,-0.5137,0.043,4.8319,-267.9972,7.0028,31.5,89823.0,,,,,,,,,,
6.46,,,,,,,,,208.745,9.953,0.321,0.772,0.48,898.09,-20.009,,,
6.465,-0.0405,-0.5146,0.0288,3.4314,-267.1569,7.2829,31.5,89776.0,,,,,,,,,,
6.47,,,,,,,,,208.606,9.968,0.337,0.539,0.479,900.84,-20.038,,,
6.475,-0.0547,-0.5166,0.0327,-2.1709,-267.0868,7.3529,31.5,89783.0,,,,,,,,,,
6.48,,,,,,,,,208.462,9.977,0.351,0.306,0.477,901.39,-20.058,,,
6.485,-0.0693,-0.5137,0.0063,-0.7703,-267.437,7.6331,31.5,89749.0,,,,,,,,,,
6.49,,,,,,,,,208.326,9.981,0.359,0.073,0.475,906.34,-20.096,,,
6.495,-0.0645,-0.5098,0.0171,1.5406,-270.7283,7.423,31.5,89705.0,,,,,,,,,,
6.5,,,,,,,,,208.192,9.98,0.369,-0.159,0.474,909.64,-20.096,,,
6.505,-0.0635,-0.5137,0.0049,0.4902,-268.1373,7.563,31.5,89709.0,,,,,,,,,,
6.51,,,,,,,,,208.06,9.973,0.381,-0.395,0.472,912.3,-20.058,,,
6.515,-0.0723,-0.5093,-0.0151,2.2409,-267.8571,7.3529,31.5,89651.0,,,,,,,,,,
6.52,,,,,,,,,207.932,9.961,0.392,-0.628,0.469,915.97,-20.058,,,
6.525,-0.082,-0.5127,-0.0186,-2.6611,-269.2577,7.3529,31.5,89619.0,,,,,,,,,,
6.53,,,,,,,,,207.799,9.943,0.404,-0.861,0.467,916.62,-20.038,,,
6.535,-0.0889,-0.5088,-0.0078,2.8711,-268.4874,7.2829,31.5,89580.0,,,,,,,,,,
6.54,,,,,,,,,207.667,9.92,0.411,-1.095,0.463,919.09,-20.038,,,
6.545,-0.1011,-0.5063,-0.0166,5.042,-267.6471,6.6527,31.5,89570.0,,,,,,,,,,
6.55,,,,,,,,,207.539,9.891,0.424,-1.327,0.46,922.77,-20.038,,,
6.555,-0.124,-0.5117,-0.0347,1.5406,-269.3978,6.3725,31.5,89561.0,,,,,,,,,,
6.56,,,,,,,,,207.406,9.857,0.437,-1.558,0.457,923.13,-20.019,,,
6.565,-0.1025,-0.5049,-0.0278,0.6303,-268.9076,5.8123,31.4,89550.0,,,,,,,,,,
6.57,,,,,,,,,207.28,9.817,0.448,-1.79,0.452,928.1,-19.999,,,
6.575,-0.1152,-0.5107,-0.0269,-0.7003,-271.4986,5.042,31.5,89501.0,,,,,,,,,,
6.58,,,,,,,,,207.157,9.772,0.458,-2.02,0.447,931.04,-19.96,,,
6.585,-0.1201,-0.5029,-0.0288,-1.5406,-271.2185,4.4818,31.4,89468.0,,,,,,,,,,
6.59,,,,,,,,,207.038,9.722,0.466,-2.251,0.44,934.62,-19.96,,,
6.595,-0.1104,-0.4995,-0.0488,0.4902,-265.5462,3.8515,31.5,89457.0,,,,,,,,,,
6.6,,,,,,,,,206.915,9.666,0.474,-2.481,0.433,935.54,-19.951,,,
6.605,-0.1084,-0.502,-0.0312,-1.6106,-267.437,3.2913,31.4,89420.0,,,,,,,,,,
6.61,,,,,,,,,206.787,9.605,0.483,-2.704,0.425,936.37,-19.941,,,
6.615,-0.1187,-0.5044,-0.0381,3.2213,-268.6275,2.451,31.5,89413.0,,,,,,,,,,
6.62,,,,,,,,,206.657,9.54,0.49,-2.928,0.416,937.38,-19.892,,,
6.625,-0.1074,-0.5005,-0.0298,2.6611,-266.8768,1.6106,31.4,89382.0,,,,,,,,,,
6.63,,,,,,,,,206.533,9.468,0.501,-3.15,0.407,941.89,-19.863,,,
6.635,-0.0869,-0.4985,-0.0361,0.9104,-268.3473,1.4006,31.4,89321.0,,,,,,,,,,
6.64,,,,,,,,,206.412,9.392,0.512,-3.37,0.398,944.93,-19.853,,,
6.645,-0.0938,-0.4995,-0.0312,3.7815,-268.9776,1.1204,31.5,89297.0,,,,,,,,,,
6.65,,,,,,,,,206.287,9.31,0.521,-3.589,0.387,945.94,-19.824,,,
6.655,-0.0698,-0.4883,-0.0376,2.3109,-267.1569,0.7003,31.5,89229.0,,,,,,,,,,
6.66,,,,,,,,,206.166,9.223,0.532,-3.807,0.377,949.35,-19.805,,,
6.665,-0.0581,-0.4878,-0.0444,1.8207,-269.6779,0.4902,31.4,89266.0,,,,,,,,,,
6.67,,,,,,,,,206.041,9.132,0.542,-4.021,0.366,950.0,-19.776,,,
6.675,-0.0747,-0.4824,-0.0151,4.6919,-267.9972,0.4202,31.4,89227.0,,,,,,,,,,
6.68,,,,,,,,,205.917,9.035,0.551,-4.234,0.354,952.85,-19.756,,,
6.685,-0.0459,-0.4922,-0.0498,0.7703,-265.1261,0.9104,31.5,89230.0,,,,,,,,,,
6.69,,,,,,,,,205.803,8.933,0.562,-4.444,0.343,958.47,-19.756,,,
6.695,-0.0654,-0.4961,-0.0518,3.5014,-262.395,0.7703,31.5,89166.0,,,,,,,,,,
6.7,,,,,,,,,205.689,8.828,0.57,-4.65,0.331,960.68,-19.737,,,
6.705,-0.0381,-0.4932,-0.019,2.1709,-262.8151,1.0504,31.4,89175.0,,,,,,,,,,
6.71,,,,,,,,,205.577,8.719,0.579,-4.851,0.32,963.54,-19.688,,,
6.715,-0.0396,-0.498,-0.0249,6.1625,-263.5154,1.0504,31.4,89120.0,,,,,,,,,,
6.72,,,,,,,,,205.468,8.605,0.587,-5.05,0.308,966.86,-19.63,,,
6.725,-0.0469,-0.4946,-0.0444,0.4202,-263.5154,1.8207,31.5,89074.0,,,,,,,,,,
6.73,,,,,,,,,205.353,8.486,0.598,-5.246,0.298,966.96,-19.63,,,
6.735,-0.0322,-0.4946,-0.0547,1.0504,-264.0756,2.1709,31.5,89105.0,,,,,,,,,,
6.74,,,,,,,,,205.233,8.363,0.603,-5.44,0.286,967.14,-19.63,,,
6.745,-0.0425,-0.4961,-0.0312,0.5602,-265.2661,2.1008,31.5,89032.0,,,,,,,,,,
6.75,,,,,,,,,205.119,8.236,0.609,-5.631,0.274,971.94,-19.63,,,
6.755,-0.0298,-0.4941,-0.0479,5.4622,-266.8768,2.3109,31.4,88995.0,,,,,,,,,,
6.76,,,,,,,,,205.001,8.103,0.614,-5.821,0.261,972.77,-19.659,39.389732360839844,-8.288656234741211,0.0
6.765,-0.0298,-0.4956,-0.0508,6.0924,-266.9468,2.7311,31.4,88990.0,,,,,,,,,,
6.77,,,,,,,,,204.889,7.965,0.622,-6.008,0.251,977.02,-19.659,,,
6.775,-0.0293,-0.4897,-0.0449,5.3922,-265.4762,3.2913,31.4,88936.0,,,,,,,,,,
6.78,,,,,,,,,204.774,7.823,0.63,-6.192,0.242,978.4,-19.659,,,
6.785,-0.0283,-0.4883,-0.0347,3.5014,-265.7563,3.5714,31.4,88922.0,,,,,,,,,,
6.79,,,,,,,,,204.661,7.677,0.637,-6.371,0.232,981.27,-19.659,,,
6.795,-0.043,-0.4912,-0.0532,1.0504,-266.6667,3.9216,31.4,88879.0,,,,,,,,,,
6.8,,,,,,,,,204.552,7.527,0.642,-6.548,0.221,985.15,-19.659,,,
6.805,-0.042,-0.4927,-0.0405,3.0112,-270.2381,3.7115,31.4,88883.0,,,,,,,,,,
6.81,,,,,,,,,204.447,7.372,0.645,-6.721,0.209,988.57,-19.659,,,
6.815,-0.0278,-0.4927,-0.0562,5.7423,-266.4566,4.2017,31.5,88835.0,,,,,,,,,,
6.82,,,,,,,,,204.336,7.211,0.649,-6.894,0.198,989.03,-19.649,,,
6.825,-0.0488,-0.498,-0.0649,4.2717,-267.6471,4.6919,31.4,88805.0,,,,,,,,,,
6.83,,,,,,,,,204.234,7.049,0.654,-7.06,0.189,994.02,-19.62,,,
6.835,-0.0547,-0.4917,-0.0371,3.5014,-270.7983,4.3417,31.4,88769.0,,,,,,,,,,
6.84,,,,,,,,,204.128,6.882,0.658,-7.222,0.179,995.32,-19.62,,,
6.845,-0.0474,-0.4976,-0.0391,2.591,-269.2577,4.2717,31.4,88721.0,,,,,,,,,,
6.85,,,,,,,,,204.027,6.709,0.661,-7.383,0.168,998.93,-19.62,,,
6.855,-0.0713,-0.499,-0.0405,5.9524,-268.8375,4.4818,31.4,88717.0,,,,,,,,,,
6.86,,,,,,,,,203.919,6.533,0.663,-7.539,0.156,999.3,-19.62,,,
6.865,-0.0679,-0.502,-0.0273,5.3922,-269.5378,4.6218,31.4,88662.0,,,,,,,,,,
6.87,,,,,,,,,203.817,6.354,0.666,-7.69,0.147,1003.37,-19.62,,,
6.875,-0.0674,-0.5015,-0.0098,4.2017,-267.7871,4.2717,31.4,88667.0,,,,,,,,,,
6.88,,,,,,,,,203.717,6.171,0.669,-7.838,0.137,1006.15,-19.62,,,
6.885,-0.0732,-0.4951,-0.0044,5.042,-270.3081,3.9916,31.4,88631.0,,,,,,,,,,
6.89,,,,,,,,,203.618,5.986,0.671,-7.98,0.127,1009.49,-19.717,,,
6.895,-0.0688,-0.4951,0.0112,3.0812,-269.1877,3.6415,31.4,88551.0,,,,,,,,,,
6.9,,,,,,,,,203.525,5.796,0.673,-8.119,0.116,1013.93,-19.717,,,
6.905,-0.0625,-0.4995,0.0024,1.4006,-268.3473,3.5714,31.5,88516.0,,,,,,,,,,
6.91,,,,,,,,,203.427,5.603,0.674,-8.254,0.104,1014.3,-19.717,,,
6.915,-0.0645,-0.5015,0.0083,1.6106,-267.0868,3.5014,31.4,88512.0,,,,,,,,,,
6.92,,,,,,,,,203.335,5.408,0.674,-8.383,0.091,1018.94,-19.727,,,
6.925,-0.0625,-0.5015,-0.002,5.3221,-267.2969,3.5714,31.4,88495.0,,,,,,,,,,
6.93,,,,,,,,,203.238,5.212,0.674,-8.507,0.077,1019.4,-19.746,,,
6.935,-0.0571,-0.5068,0.0127,0.6303,-266.0364,3.7815,31.4,88426.0,,,,,,,,,,
6.94,,,,,,,,,203.142,5.011,0.675,-8.626,0.067,1022.28,-19.756,,,
6.945,-0.0703,-0.5122,-0.002,-1.6807,-265.4762,3.7115,31.4,88433.0,,,,,,,,,,
6.95,,,,,,,,,203.06,4.81,0.673,-8.74,0.053,1029.7,-19.795,,,
6.955,-0.0649,-0.5122,0.0137,-1.4706,-266.1765,3.7815,31.4,88400.0,,,,,,,,,,
6.96,,,,,,,,,202.981,4.606,0.671,-8.85,0.038,1032.95,-19.795,,,
6.965,-0.0474,-0.5122,0.0044,0.1401,-264.6359,4.0616,31.4,88370.0,,,,,,,,,,
6.97,,,,,,,,,202.896,4.399,0.667,-8.955,0.022,1033.32,-19.795,,,
6.975,-0.0669,-0.5166,0.0063,1.1905,-262.6751,4.2717,31.4,88343.0,,,,,,,,,,
6.98,,,,,,,,,202.809,4.191,0.664,-9.054,0.008,1034.9,-19.795,,,
6.985,-0.0649,-0.5176,0.0068,4.2717,-266.7367,4.1317,31.4,88348.0,,,,,,,,,,
6.99,,,,,,,,,202.731,3.983,0.661,-9.148,-0.004,1040.66,-19.902,,,
6.995,-0.064,-0.5171,0.0088,2.1008,-265.5462,4.2017,31.4,88315.0,,,,,,,,,,
7.0,,,,,,,,,202.647,3.769,0.658,-9.239,-0.015,1041.31,-20.009,,,
7.005,-0.0679,-0.522,-0.0122,1.5406,-264.2857,4.1317,31.4,88243.0,,,,,,,,,,
7.01,,,,,,,,,202.563,3.553,0.655,-9.324,-0.027,1043.73,-20.009,,,
7.015,-0.0757,-0.5161,0.0068,1.6807,-265.056,4.2017,31.4,88235.0,,,,,,,,,,
7.02,,,,,,,,,202.48,3.337,0.651,-9.403,-0.04,1046.52,-20.009,,,
7.025,-0.0669,-0.5215,-0.0063,3.0112,-263.0952,4.2717,31.4,88212.0,,,,,,,,,,
7.03,,,,,,,,,202.396,3.119,0.646,-9.478,-0.053,1048.57,-20.087,,,
7.035,-0.0791,-0.52,-0.0137,-0.07,-258.8235,4.2017,31.4,88185.0,,,,,,,,,,
7.04,,,,,,,,,202.306,2.9,0.642,-9.548,-0.065,1049.03,-20.096,,,
7.045,-0.0693,-0.5215,-0.0103,-0.4902,-259.0336,4.2017,31.4,88144.0,,,,,,,,,,
7.05,,,,,,,,,202.217,2.684,0.636,-9.611,-0.078,1051.64,-20.106,,,
7.055,-0.103,-0.5171,-0.0156,2.3109,-262.395,3.8515,31.4,88115.0,,,,,,,,,,
7.06,,,,,,,,,202.14,2.466,0.631,-9.669,-0.093,1058.34,-20.116,,,
7.065,-0.0806,-0.5254,-0.019,-1.1204,-258.8235,3.7115,31.4,88083.0,,,,,,,,,,
7.07,,,,,,,,,202.058,2.244,0.625,-9.724,-0.105,1059.08,-20.116,,,
7.075,-0.0806,-0.5229,-0.022,1.3305,-260.7843,3.5714,31.4,88064.0,,,,,,,,,,
7.08,,,,,,,,,201.976,2.024,0.619,-9.772,-0.119,1061.22,-20.164,,,
7.085,-0.1016,-0.5278,-0.0312,6.3025,-262.8151,3.3613,31.4,88073.0,,,,,,,,,,
7.09,,,,,,,,,201.893,1.801,0.613,-9.816,-0.132,1063.74,-20.194,,,
7.095,-0.083,-0.5298,-0.0498,3.9216,-260.7843,3.2213,31.4,88014.0,,,,,,,,,,
7.1,,,,,,,,,201.815,1.575,0.608,-9.855,-0.141,1067.56,-20.194,,,
7.105,-0.0713,-0.5239,-0.0337,0.7003,-258.8235,2.9412,31.4,87982.0,,,,,,,,,,
7.11,,,,,,,,,201.738,1.35,0.602,-9.888,-0.151,1070.26,-20.194,,,
7.115,-0.0835,-0.5405,-0.0488,0.9804,-258.3333,2.7311,31.4,87978.0,,,,,,,,,,
7.12,,,,,,,,,201.662,1.127,0.595,-9.917,-0.164,1073.24,-20.223,,,
7.125,-0.1074,-0.542,-0.0459,2.2409,-258.6835,2.381,31.4,87941.0,,,,,,,,,,
7.13,,,,,,,,,201.582,0.903,0.589,-9.94,-0.177,1074.17,-20.242,,,
7.135,-0.082,-0.5342,-0.0352,1.3305,-259.0336,1.7507,31.4,87967.0,,,,,,,,,,
7.14,,,,,,,,,201.497,0.678,0.583,-9.958,-0.188,1075.01,-20.271,,,
7.145,-0.0845,-0.5322,-0.0352,-1.2605,-257.6331,1.1204,31.5,87893.0,,,,,,,,,,
7.15,,,,,,,,,201.419,0.453,0.577,-9.971,-0.2,1079.68,-20.32,,,
7.155,-0.085,-0.5405,-0.0039,-3.6415,-256.5826,0.9104,31.4,87807.0,,,,,,,,,,
7.16,,,,,,,,,201.341,0.229,0.571,-9.978,-0.215,1082.66,-20.359,,,
7.165,-0.0923,-0.5459,-0.0532,0.7703,-258.9636,0.07,31.4,87835.0,,,,,,,,,,
7.17,,,,,,,,,201.258,0.006,0.565,-9.981,-0.231,1083.04,-20.408,,,
7.175,-0.0322,-0.5625,-0.0552,4.7619,-259.8739,-0.07,31.4,87807.0,,,,,,,,,,
7.18,,,,,,,,,201.171,-0.219,0.559,-9.978,-0.244,1084.06,-20.446,,,
7.185,-0.0669,-0.5723,0.0024,-1.4006,-257.563,0.1401,31.4,87787.0,,,,,,,,,,
7.19,,,,,,,,,201.083,-0.445,0.553,-9.971,-0.253,1086.49,-20.573,,,
7.195,-0.0737,-0.5918,-0.0264,0.7703,-258.7535,0.0,31.4,87758.0,,,,,,,,,,
7.2,,,,,,,,,201.0,-0.669,0.547,-9.958,-0.267,1090.97,-20.573,,,
7.205,-0.0474,-0.5801,-0.0889,-1.0504,-257.6331,-0.4902,31.4,87750.0,,,,,,,,,,
7.21,,,,,,,,,200.926,-0.894,0.541,-9.941,-0.279,1096.39,-20.602,,,
7.215,-0.0459,-0.5879,-0.042,-0.4902,-257.7731,-0.2101,31.4,87698.0,,,,,,,,,,
7.22,,,,,,,,,200.852,-1.117,0.535,-9.918,-0.292,1099.01,-20.68,,,
7.225,-0.0269,-0.5825,-0.021,1.5406,-258.5434,-0.2801,31.4,87662.0,,,,,,,,,,
7.23,,,,,,,,,200.768,-1.34,0.528,-9.89,-0.305,1099.01,-21.01,,,
7.235,-0.0601,-0.5688,-0.041,-0.4202,-259.5238,-0.1401,31.4,87650.0,,,,,,,,,,
7.24,,,,,,,,,200.681,-1.563,0.521,-9.858,-0.316,1100.88,-21.205,,,
7.245,-0.021,-0.584,-0.0337,2.521,-260.7143,0.2101,31.4,87611.0,,,,,,,,,,
7.25,,,,,,,,,200.594,-1.786,0.513,-9.82,-0.328,1103.59,-21.205,,,
7.255,0.0234,-0.5762,-0.0303,-0.4902,-259.6639,0.4202,31.4,87582.0,,,,,,,,,,
7.26,,,,,,,,,200.502,-2.009,0.505,-9.777,-0.338,1104.34,-21.36,,,
7.265,-0.0596,-0.5742,-0.0581,1.4706,-264.7759,0.5602,31.4,87569.0,,,,,,,,,,
7.27,,,,,,,,,200.417,-2.23,0.497,-9.729,-0.351,1109.2,-21.36,,,
7.275,-0.0283,-0.5674,-0.022,2.8711,-263.3053,0.6303,31.4,87550.0,,,,,,,,,,
7.28,,,,,,,,,200.334,-2.454,0.488,-9.675,-0.361,1112.57,-21.36,,,
7.285,0.0161,-0.5674,-0.0073,3.1513,-263.9356,0.7003,31.4,87522.0,,,,,,,,,,
7.29,,,,,,,,,200.248,-2.676,0.478,-9.616,-0.371,1113.69,-21.36,,,
7.295,-0.0542,-0.5625,-0.0796,4.8319,-264.916,1.1204,31.4,87464.0,,,,,,,,,,
7.3,,,,,,,,,200.167,-2.896,0.468,-9.552,-0.38,1117.34,-21.283,,,
7.305,-0.0332,-0.5669,-0.0005,4.2017,-263.7955,1.2605,31.4,87425.0,,,,,,,,,,
7.31,,,,,,,,,200.086,-3.117,0.457,-9.482,-0.387,1120.06,-21.244,,,
7.315,0.0952,-0.5708,-0.0693,1.0504,-267.0868,1.8908,31.4,87437.0,,,,,,,,,,
7.32,,,,,,,,,200.004,-3.334,0.446,-9.408,-0.395,1121.28,-21.137,,,
7.325,-0.0249,-0.5635,-0.0781,6.3725,-268.8375,3.2213,31.4,87389.0,,,,,,,,,,
7.33,,,,,,,,,199.92,-3.552,0.434,-9.328,-0.405,1123.06,-21.137,,,
7.335,-0.0527,-0.5737,-0.0239,5.2521,-269.3978,3.5014,31.4,87352.0,,,,,,,,,,
7.34,,,,,,,,,199.837,-3.77,0.42,-9.243,-0.412,1125.68,-21.108,,,
7.345,0.0181,-0.5645,-0.0273,7.0028,-270.7283,3.4314,31.4,87344.0,,,,,,,,,,
7.35,,,,,,,,,199.763,-3.987,0.406,-9.152,-0.419,1131.12,-21.108,,,
7.355,-0.0015,-0.5576,-0.0615,6.3025,-271.9188,4.0616,31.4,87284.0,,,,,,,,,,
7.36,,,,,,,,,199.689,-4.202,0.39,-9.055,-0.424,1133.65,-21.108,,,
7.365,-0.0908,-0.561,0.0176,3.7115,-270.098,4.2017,31.4,87278.0,,,,,,,,,,
7.37,,,,,,,,,199.612,-4.416,0.375,-8.953,-0.431,1134.78,-21.098,,,
7.375,0.0239,-0.5713,-0.0254,3.2213,-271.4986,3.7115,31.4,87237.0,,,,,,,,,,
7.38,,,,,,,,,199.538,-4.625,0.36,-8.847,-0.439,1138.15,-21.049,,,
7.385,0.0117,-0.5562,-0.0527,6.2325,-273.1092,4.1317,31.4,87224.0,,,,,,,,,,
7.39,,,,,,,,,199.467,-4.834,0.345,-8.735,-0.446,1141.62,-21.049,,,
7.395,-0.0996,-0.5645,0.0298,9.1036,-275.7003,4.4118,31.4,87211.0,,,,,,,,,,
7.4,,,,,,,,,199.392,-5.04,0.329,-8.618,-0.452,1142.38,-21.049,,,
7.405,-0.019,-0.5649,-0.0234,6.3725,-274.2997,3.9916,31.4,87170.0,,,,,,,,,,
7.41,,,,,,,,,199.326,-5.246,0.31,-8.495,-0.455,1148.01,-21.049,,,
7.415,-0.0088,-0.5586,-0.0215,1.7507,-272.549,3.9216,31.4,87147.0,,,,,,,,,,
7.42,,,,,,,,,199.255,-5.448,0.293,-8.367,-0.46,1148.57,-21.049,,,
7.425,-0.063,-0.5669,-0.0215,2.8711,-272.7591,4.0616,31.4,87131.0,,,,,,,,,,
7.43,,,,,,,,,199.187,-5.645,0.279,-8.235,-0.468,1152.43,-21.049,,,
7.435,-0.0024,-0.5645,-0.0029,3.4314,-273.1793,4.3417,31.4,87094.0,,,,,,,,,,
7.44,,,,,,,,,199.117,-5.84,0.263,-8.099,-0.475,1153.65,-21.049,,,
7.445,0.0024,-0.5581,-0.0249,7.493,-276.5406,4.1317,31.4,87017.0,,,,,,,,,,
7.45,,,,,,,,,199.043,-6.031,0.247,-7.957,-0.482,1154.87,-21.049,,,
7.455,-0.083,-0.5703,-0.0049,6.0224,-275.7003,4.6218,31.4,87005.0,,,,,,,,,,
7.46,,,,,,,,,198.974,-6.221,0.229,-7.81,-0.485,1158.72,-21.049,39.389129638671875,-8.28796100616455,0.0
7.465,-0.0386,-0.5576,0.0,7.9832,-275.9104,4.2717,31.4,87004.0,,,,,,,,,,
7.47,,,,,,,,,198.904,-6.407,0.211,-7.658,-0.489,1160.88,-21.049,,,
7.475,-0.0044,-0.5562,-0.0278,4.0616,-273.5294,4.4818,31.4,86962.0,,,,,,,,,,
7.48,,,,,,,,,198.831,-6.59,0.192,-7.502,-0.492,1162.39,-21.049,,,
7.485,-0.1221,-0.5547,0.0161,2.8711,-278.6415,4.0616,31.4,86930.0,,,,,,,,,,
7.49,,,,,,,,,198.762,-6.767,0.175,-7.343,-0.496,1165.87,-21.049,,,
7.495,-0.0361,-0.5508,0.0381,4.8319,-278.2913,3.4314,31.4,86942.0,,,,,,,,,,
7.5,,,,,,,,,198.707,-6.943,0.158,-7.177,-0.502,1173.12,-20.933,,,
7.505,-0.0234,-0.5513,-0.0654,4.2717,-277.1709,3.2213,31.4,86876.0,,,,,,,,,,
7.51,,,,,,,,,198.649,-7.115,0.141,-7.006,-0.505,1174.25,-20.923,,,
7.515,-0.103,-0.5488,0.0269,6.5826,-279.4818,2.6611,31.4,86870.0,,,,,,,,,,
7.52,,,,,,,,,198.584,-7.282,0.124,-6.832,-0.508,1174.34,-20.913,,,
7.525,0.0068,-0.5513,0.0078,5.6022,-277.521,2.591,31.4,86838.0,,,,,,,,,,
7.53,,,,,,,,,198.524,-7.447,0.106,-6.653,-0.509,1178.3,-20.884,,,
7.535,-0.0303,-0.5435,-0.0522,4.2717,-277.8011,3.2913,31.4,86818.0,,,,,,,,,,
7.54,,,,,,,,,198.463,-7.606,0.089,-6.471,-0.51,1180.18,-20.855,,,
7.545,-0.0796,-0.5513,-0.0034,2.1008,-277.9412,3.2213,31.4,86796.0,,,,,,,,,,
7.55,,,,,,,,,198.4,-7.76,0.072,-6.285,-0.513,1181.31,-20.787,,,
7.555,-0.0454,-0.5435,0.0186,1.4706,-277.2409,2.8711,31.4,86771.0,,,,,,,,,,
7.56,,,,,,,,,198.343,-7.91,0.057,-6.095,-0.516,1186.4,-20.787,,,
7.565,-0.0454,-0.5459,-0.0508,3.2913,-278.5714,2.1709,31.4,86726.0,,,,,,,,,,
7.57,,,,,,,,,198.282,-8.055,0.042,-5.902,-0.519,1186.97,-20.787,,,
7.575,-0.0112,-0.5508,-0.0566,4.2717,-277.7311,2.3109,31.4,86708.0,,,,,,,,,,
7.58,,,,,,,,,198.223,-8.196,0.026,-5.704,-0.52,1189.99,-20.777,,,
7.585,-0.0229,-0.5547,-0.1021,2.1008,-278.5014,2.8011,31.4,86695.0,,,,,,,,,,
7.59,,,,,,,,,198.162,-8.332,0.009,-5.504,-0.52,1191.87,-20.777,,,
7.595,-0.0298,-0.5342,-0.0146,0.8403,-280.2521,2.8011,31.4,86685.0,,,,,,,,,,
7.6,,,,,,,,,198.1,-8.463,-0.005,-5.3,-0.522,1193.95,-20.777,,,
7.605,0.0083,-0.5396,0.0298,-0.6303,-278.1513,3.3613,31.4,86664.0,,,,,,,,,,
7.61,,,,,,,,,198.039,-8.59,-0.019,-5.092,-0.524,1196.31,-20.738,,,
7.615,-0.0337,-0.5483,-0.0845,0.3501,-281.7927,3.5014,31.4,86604.0,,,,,,,,,,
7.62,,,,,,,,,197.983,-8.711,-0.033,-4.882,-0.526,1200.56,-20.68,,,
7.625,-0.0479,-0.5317,-0.0605,0.2101,-282.493,3.9216,31.4,86572.0,,,,,,,,,,
7.63,,,,,,,,,197.925,-8.828,-0.047,-4.666,-0.528,1202.26,-20.68,,,
7.635,-0.0581,-0.5317,-0.0278,1.7507,-281.5826,3.4314,31.4,86577.0,,,,,,,,,,
7.64,,,,,,,,,197.865,-8.94,-0.062,-4.447,-0.53,1203.48,-20.68,,,
7.645,-0.04,-0.5439,-0.0732,9.0336,-282.423,2.6611,31.4,86545.0,,,,,,,,,,
7.65,,,,,,,,,197.8,-9.047,-0.077,-4.226,-0.531,1204.43,-20.631,,,
7.655,-0.0293,-0.541,-0.0498,8.8235,-283.1232,2.3109,31.4,86521.0,,,,,,,,,,
7.66,,,,,,,,,197.735,-9.148,-0.098,-4.002,-0.528,1206.41,-20.641,39.389129638671875,-8.28796100616455,5.0
7.665,-0.0386,-0.5464,0.001,3.2913,-283.6835,2.1709,31.4,86471.0,,,,,,,,,,
7.67,,,,,,,,,197.679,-9.244,-0.118,-3.775,-0.524,1212.08,-20.583,,,
7.675,-0.0122,-0.5479,-0.061,4.3417,-286.2045,2.591,31.4,86468.0,,,,,,,,,,
7.68,,,,,,,,,197.624,-9.334,-0.134,-3.545,-0.522,1214.63,-20.583,,,
7.685,-0.0708,-0.5234,-0.0371,4.7619,-285.9944,2.521,31.4,86434.0,,,,,,,,,,
7.69,,,,,,,,,197.563,-9.42,-0.151,-3.311,-0.52,1215.11,-20.583,,,
7.695,0.0112,-0.5278,-0.0264,3.3613,-283.4034,2.451,31.4,86416.0,,,,,,,,,,
7.7,,,,,,,,,197.503,-9.499,-0.169,-3.075,-0.517,1217.66,-20.583,,,
7.705,-0.0044,-0.5327,0.0015,6.0924,-285.3641,2.591,31.4,86390.0,,,,,,,,,,
7.71,,,,,,,,,197.443,-9.572,-0.185,-2.839,-0.514,1219.93,-20.583,,,
7.715,-0.0645,-0.5347,-0.0322,5.6022,-286.9048,2.521,31.4,86364.0,,,,,,,,,,
7.72,,,,,,,,,197.391,-9.64,-0.203,-2.6,-0.51,1224.66,-20.417,,,
7.725,0.0352,-0.5225,-0.0376,5.1821,-283.5434,2.7311,31.4,86320.0,,,,,,,,,,
7.73,,,,,,,,,197.332,-9.702,-0.22,-2.359,-0.506,1224.94,-20.456,,,
7.735,-0.0117,-0.5278,0.0269,9.2437,-286.9748,2.8711,31.4,86266.0,,,,,,,,,,
7.74,,,,,,,,,197.276,-9.757,-0.237,-2.118,-0.502,1228.16,-20.456,,,
7.745,-0.0063,-0.5293,0.0308,3.9216,-289.1457,3.4314,31.4,86265.0,,,,,,,,,,
7.75,,,,,,,,,197.219,-9.806,-0.258,-1.873,-0.497,1229.87,-20.417,,,
7.755,-0.0405,-0.5269,-0.106,4.2017,-289.4958,3.7115,31.4,86240.0,,,,,,,,,,
7.76,,,,,,,,,197.162,-9.85,-0.274,-1.625,-0.493,1232.33,-20.349,,,
7.765,-0.0288,-0.5288,0.061,4.4118,-289.7759,3.6415,31.4,86213.0,,,,,,,,,,
7.77,,,,,,,,,197.106,-9.888,-0.29,-1.376,-0.489,1234.79,-20.32,,,
7.775,-0.0083,-0.5273,0.0039,4.2717,-290.1961,3.5714,31.4,86218.0,,,,,,,,,,
7.78,,,,,,,,,197.055,-9.919,-0.306,-1.126,-0.484,1238.96,-20.32,,,
7.785,-0.0073,-0.5229,-0.1172,6.1625,-291.9468,3.9916,31.4,86189.0,,,,,,,,,,
7.79,,,,,,,,,197.012,-9.944,-0.322,-0.874,-0.479,1244.08,-20.32,,,
7.795,-0.022,-0.5293,0.0537,5.4622,-293.6975,4.2717,31.4,86143.0,,,,,,,,,,
7.8,,,,,,,,,196.962,-9.963,-0.339,-0.621,-0.474,1244.17,-20.32,,,
