ts,Ax,Ay,Az,Gx,Gy,Gz,T,P,velocity,q0_estimated,q1_estimated,q2_estimated,q3_estimated,filtered_altitude_AGL,filtered_acceleration,latitude,longitude,satellites
-0.75,,,,,,,,,-0.08,-1.904,2.004,-9.575,0.817,0.06,0.019,,,
-0.745,0.0547,0.4888,0.0444,0.7703,-2.3109,-0.3501,32.2,100155.0,,,,,,,,,,
-0.74,,,,,,,,,-0.075,-1.906,2.004,-9.574,0.817,0.06,0.038,,,
-0.735,0.0508,0.5049,0.0278,1.0504,-3.3613,-0.2801,32.2,100149.0,,,,,,,,,,
-0.73,,,,,,,,,-0.069,-1.907,2.004,-9.574,0.816,0.06,0.038,,,
-0.725,0.0586,0.4966,0.0386,0.7703,-3.4314,-0.4202,32.2,100133.0,,,,,,,,,,
-0.72,,,,,,,,,-0.068,-1.91,2.004,-9.574,0.816,-0.11,0.038,,,
-0.715,0.0366,0.5005,0.0449,0.5602,-1.6807,-0.4202,32.2,100142.0,,,,,,,,,,
-0.71,,,,,,,,,-0.067,-1.912,2.005,-9.573,0.815,-0.11,-0.019,,,
-0.705,0.0352,0.5015,0.0771,0.6303,8.0532,-0.2101,32.2,100135.0,,,,,,,,,,
-0.7,,,,,,,,,-0.052,-1.913,2.005,-9.573,0.815,0.47,0.038,,,
-0.695,0.0405,0.5005,0.0576,0.4202,11.2045,-0.2101,32.2,100137.0,,,,,,,,,,
-0.69,,,,,,,,,-0.033,-1.906,2.004,-9.574,0.816,0.73,0.048,,,
-0.685,0.0522,0.5117,0.0801,0.9104,11.4146,0.0,32.2,100126.0,,,,,,,,,,
-0.68,,,,,,,,,-0.014,-1.896,2.003,-9.576,0.818,0.73,0.048,,,
-0.675,0.0562,0.4731,0.0557,1.4006,6.6527,0.0,32.2,100162.0,,,,,,,,,,
-0.67,,,,,,,,,0.004,-1.887,2.002,-9.578,0.82,0.73,0.048,39.389991760253906,-8.289570808410645,12.0
-0.665,0.0679,0.5,0.061,1.5406,1.4006,-0.1401,32.2,100141.0,,,,,,,,,,
-0.66,,,,,,,,,0.022,-1.881,2.001,-9.58,0.822,0.73,0.048,,,
-0.655,0.0527,0.5215,-0.0024,2.0308,0.7703,0.2801,32.2,100166.0,,,,,,,,,,
-0.65,,,,,,,,,0.037,-1.879,2.001,-9.58,0.823,0.55,0.048,,,
-0.645,0.0669,0.5029,-0.0142,0.9104,-0.7703,-0.2801,32.2,100149.0,,,,,,,,,,
-0.64,,,,,,,,,0.05,-1.879,2.0,-9.58,0.824,0.55,0.048,,,
-0.635,0.0615,0.4941,0.042,0.2801,-1.5406,-0.4902,32.2,100150.0,,,,,,,,,,
-0.63,,,,,,,,,0.064,-1.879,2.0,-9.58,0.824,0.55,0.048,,,
-0.625,0.0654,0.5117,0.0537,0.6303,-0.2801,-0.4202,32.2,100133.0,,,,,,,,,,
-0.62,,,,,,,,,0.076,-1.88,2.0,-9.58,0.823,0.47,0.048,,,
-0.615,0.0522,0.5015,0.0532,0.5602,-5.3221,-0.7003,32.2,100147.0,,,,,,,,,,
-0.61,,,,,,,,,0.089,-1.88,2.0,-9.58,0.823,0.55,0.067,,,
-0.605,0.0518,0.4888,0.0405,0.9804,-8.1933,-0.4202,32.2,100132.0,,,,,,,,,,
-0.6,,,,,,,,,0.091,-1.884,2.001,-9.579,0.822,0.05,0.067,,,
-0.595,0.0522,0.4844,0.0327,0.7703,-9.3838,-0.2801,32.2,100142.0,,,,,,,,,,
-0.59,,,,,,,,,0.093,-1.89,2.002,-9.578,0.821,0.05,0.067,,,
-0.585,0.0498,0.5024,0.0278,0.8403,-6.8627,-0.4902,32.2,100166.0,,,,,,,,,,
-0.58,,,,,,,,,0.095,-1.898,2.002,-9.576,0.819,0.05,0.038,,,
-0.575,0.0508,0.5005,0.0464,0.6303,-3.5014,-0.4202,32.2,100150.0,,,,,,,,,,
-0.57,,,,,,,,,0.097,-1.903,2.003,-9.575,0.818,0.05,0.067,,,
-0.565,0.0415,0.4971,0.0649,0.5602,-2.451,-0.6303,32.2,100158.0,,,,,,,,,,
-0.56,,,,,,,,,0.096,-1.905,2.003,-9.575,0.817,-0.12,0.067,,,
-0.555,0.0386,0.5024,0.0693,0.7003,-1.6106,-0.4202,32.2,100155.0,,,,,,,,,,
-0.55,,,,,,,,,0.094,-1.907,2.004,-9.574,0.817,-0.12,0.048,,,
-0.545,0.0459,0.4888,0.0537,1.1204,-0.3501,-0.2101,32.2,100170.0,,,,,,,,,,
-0.54,,,,,,,,,0.091,-1.908,2.004,-9.574,0.817,-0.2,0.048,,,
-0.535,0.0415,0.502,0.0518,0.8403,0.5602,-0.4202,32.2,100149.0,,,,,,,,,,
-0.53,,,,,,,,,0.087,-1.908,2.004,-9.574,0.817,-0.2,0.048,,,
-0.525,0.0552,0.4927,0.0464,1.1905,3.0812,0.0,32.2,100142.0,,,,,,,,,,
-0.52,,,,,,,,,0.084,-1.907,2.004,-9.574,0.817,-0.2,0.048,,,
-0.515,0.0566,0.501,0.041,0.9804,2.451,-0.1401,32.2,100160.0,,,,,,,,,,
-0.51,,,,,,,,,0.08,-1.904,2.003,-9.575,0.818,-0.2,-0.019,,,
-0.505,0.0474,0.5063,0.0327,0.9804,1.4006,-0.4902,32.2,100142.0,,,,,,,,,,
-0.5,,,,,,,,,0.068,-1.902,2.003,-9.575,0.818,-0.62,0.048,,,
-0.495,0.061,0.501,0.042,1.0504,3.2913,-0.07,32.2,100164.0,,,,,,,,,,
-0.49,,,,,,,,,0.056,-1.9,2.003,-9.576,0.819,-0.62,0.058,,,
-0.485,0.0591,0.4956,0.0405,0.8403,1.1905,-0.2801,32.2,100139.0,,,,,,,,,,
-0.48,,,,,,,,,0.045,-1.897,2.002,-9.576,0.82,-0.62,0.058,,,
-0.475,0.0537,0.4961,0.0439,0.7703,-1.1204,-0.3501,32.2,100161.0,,,,,,,,,,
-0.47,,,,,,,,,0.034,-1.896,2.002,-9.577,0.82,-0.62,0.058,39.389991760253906,-8.289570808410645,12.0
-0.465,0.0503,0.499,0.042,1.0504,-4.902,-0.4202,32.2,100136.0,,,,,,,,,,
-0.46,,,,,,,,,0.022,-1.897,2.002,-9.576,0.82,-0.62,0.058,,,
-0.455,0.0601,0.5044,0.0352,1.0504,-3.0112,-0.2101,32.2,100152.0,,,,,,,,,,
-0.45,,,,,,,,,0.022,-1.9,2.002,-9.576,0.819,-0.11,0.019,,,
-0.445,0.0581,0.499,0.04,0.7003,-2.3109,-0.3501,32.2,100150.0,,,,,,,,,,
-0.44,,,,,,,,,0.022,-1.902,2.002,-9.575,0.819,-0.11,0.058,,,
-0.435,0.0469,0.5029,0.0518,0.7003,-1.8207,-0.5602,32.2,100174.0,,,,,,,,,,
-0.43,,,,,,,,,0.02,-1.904,2.003,-9.575,0.819,-0.19,0.019,,,
-0.425,0.0459,0.4985,0.061,0.5602,-1.6807,-0.3501,32.2,100115.0,,,,,,,,,,
-0.42,,,,,,,,,0.015,-1.905,2.003,-9.575,0.818,-0.36,0.058,,,
-0.415,0.0449,0.4971,0.064,0.8403,-0.7003,-0.2801,32.2,100144.0,,,,,,,,,,
-0.41,,,,,,,,,0.013,-1.906,2.003,-9.575,0.818,-0.19,0.019,,,
-0.405,0.0488,0.4956,0.0566,1.2605,0.2101,-0.2101,32.2,100150.0,,,,,,,,,,
-0.4,,,,,,,,,0.011,-1.906,2.003,-9.574,0.818,-0.19,0.019,,,
-0.395,0.0557,0.5,0.041,1.0504,-0.4202,-0.1401,32.2,100126.0,,,,,,,,,,
-0.39,,,,,,,,,0.009,-1.906,2.003,-9.575,0.818,-0.19,0.01,,,
-0.385,0.0576,0.499,0.0371,1.0504,1.8207,-0.2801,32.2,100141.0,,,,,,,,,,
-0.38,,,,,,,,,0.007,-1.906,2.003,-9.575,0.818,-0.19,0.019,,,
-0.375,0.0552,0.498,0.0371,1.6106,4.2017,-0.07,32.2,100154.0,,,,,,,,,,
-0.37,,,,,,,,,0.016,-1.904,2.002,-9.575,0.819,0.31,0.019,,,
-0.365,0.0537,0.4995,0.042,1.0504,3.0812,-0.2801,32.2,100157.0,,,,,,,,,,
-0.36,,,,,,,,,0.014,-1.9,2.002,-9.576,0.82,-0.19,0.019,,,
-0.355,0.0566,0.5005,0.0356,1.1905,1.2605,-0.3501,32.2,100138.0,,,,,,,,,,
-0.35,,,,,,,,,0.012,-1.897,2.001,-9.576,0.821,-0.19,0.019,,,
-0.345,0.0591,0.499,0.0405,0.5602,-2.6611,-0.3501,32.2,100154.0,,,,,,,,,,
-0.34,,,,,,,,,0.021,-1.896,2.001,-9.577,0.822,0.31,0.019,,,
-0.335,0.0557,0.499,0.0483,0.9104,-5.112,-0.4202,32.2,100133.0,,,,,,,,,,
-0.33,,,,,,,,,0.029,-1.898,2.001,-9.576,0.821,0.31,0.019,,,
-0.325,0.0493,0.4985,0.0386,0.9804,-5.8123,-0.4202,32.2,100150.0,,,,,,,,,,
-0.32,,,,,,,,,0.038,-1.902,2.002,-9.575,0.82,0.31,0.019,,,
-0.315,0.0498,0.4956,0.042,0.8403,-5.1821,-0.3501,32.2,100121.0,,,,,,,,,,
-0.31,,,,,,,,,0.035,-1.906,2.002,-9.575,0.82,-0.19,0.019,,,
-0.305,0.0449,0.4951,0.0459,0.7703,-3.5714,-0.4902,32.2,100121.0,,,,,,,,,,
-0.3,,,,,,,,,0.049,-1.91,2.002,-9.574,0.819,0.56,0.019,,,
-0.295,0.0459,0.5,0.0591,0.7003,-1.2605,-0.4202,32.2,100161.0,,,,,,,,,,
-0.29,,,,,,,,,0.062,-1.913,2.003,-9.573,0.818,0.56,0.019,,,
-0.285,0.041,0.4985,0.0566,0.8403,1.3305,-0.2101,32.2,100157.0,,,,,,,,,,
-0.28,,,,,,,,,0.059,-1.914,2.003,-9.573,0.818,-0.2,0.019,,,
-0.275,0.0459,0.501,0.0488,1.1204,2.7311,-0.2101,32.2,100166.0,,,,,,,,,,
-0.27,,,,,,,,,0.056,-1.912,2.003,-9.573,0.818,-0.2,0.019,,,
-0.265,0.0562,0.5005,0.0503,0.9104,1.2605,-0.1401,32.2,100143.0,,,,,,,,,,
-0.26,,,,,,,,,0.053,-1.91,2.002,-9.574,0.819,-0.2,0.019,,,
-0.255,0.061,0.5,0.0469,0.9804,0.9804,-0.2101,32.2,100159.0,,,,,,,,,,
-0.25,,,,,,,,,0.05,-1.908,2.002,-9.574,0.819,-0.2,0.019,,,
-0.245,0.0547,0.499,0.0293,1.2605,1.4006,-0.2101,32.2,100159.0,,,,,,,,,,
-0.24,,,,,,,,,0.047,-1.907,2.002,-9.574,0.82,-0.2,0.019,,,
-0.235,0.0557,0.4995,0.0312,0.9104,0.9804,-0.2801,32.2,100155.0,,,,,,,,,,
-0.23,,,,,,,,,0.032,-1.906,2.001,-9.575,0.82,-0.79,0.019,,,
-0.225,0.0596,0.5005,0.0366,0.8403,0.7003,-0.2801,32.2,100156.0,,,,,,,,,,
-0.22,,,,,,,,,0.017,-1.904,2.001,-9.575,0.821,-0.79,0.029,,,
-0.215,0.0547,0.4937,0.0425,0.7703,-0.9104,-0.3501,32.2,100149.0,,,,,,,,,,
-0.21,,,,,,,,,0.002,-1.903,2.001,-9.575,0.821,-0.79,0.038,,,
-0.205,0.0527,0.5,0.0479,0.6303,-3.7115,-0.4902,32.2,100122.0,,,,,,,,,,
-0.2,,,,,,,,,-0.012,-1.904,2.001,-9.575,0.821,-0.79,0.038,,,
-0.195,0.0527,0.5034,0.0488,1.0504,-3.7115,-0.3501,32.2,100137.0,,,,,,,,,,
-0.19,,,,,,,,,-0.024,-1.906,2.002,-9.575,0.82,-0.7,0.038,,,
-0.185,0.0562,0.4961,0.0352,1.0504,-3.7815,-0.2801,32.2,100150.0,,,,,,,,,,
-0.18,,,,,,,,,-0.034,-1.909,2.002,-9.574,0.82,-0.62,0.038,,,
-0.175,0.0483,0.4946,0.0254,0.9104,-3.1513,-0.4202,32.2,100154.0,,,,,,,,,,
-0.17,,,,,,,,,-0.035,-1.912,2.002,-9.573,0.819,-0.2,0.038,,,
-0.165,0.0542,0.5083,0.0474,0.5602,-0.7003,-0.4202,32.2,100147.0,,,,,,,,,,
-0.16,,,,,,,,,-0.043,-1.914,2.002,-9.573,0.819,-0.54,0.029,,,
-0.155,0.042,0.5107,0.0474,0.6303,0.4202,-0.3501,32.2,100141.0,,,,,,,,,,
-0.15,,,,,,,,,-0.044,-1.915,2.002,-9.573,0.819,-0.2,0.029,,,
-0.145,0.0566,0.6797,0.0615,1.0504,-1.0504,-0.4202,32.2,100164.0,,,,,,,,,,
-0.14,,,,,,,,,-0.043,-1.914,2.002,-9.573,0.819,-0.11,0.038,,,
-0.135,0.0571,0.9116,0.0698,1.0504,-3.8515,-0.7703,32.2,100142.0,,,,,,,,,,
-0.13,,,,,,,,,-0.042,-1.914,2.002,-9.573,0.819,-0.11,0.048,,,
-0.125,0.0562,1.2319,0.0552,1.2605,-3.8515,-0.3501,32.2,100170.0,,,,,,,,,,
-0.12,,,,,,,,,-0.037,-1.917,2.003,-9.572,0.818,0.05,0.106,,,
-0.115,0.0464,1.5981,0.0469,1.2605,-0.2801,-0.1401,32.2,100139.0,,,,,,,,,,
-0.11,,,,,,,,,-0.03,-1.92,2.003,-9.572,0.818,0.05,0.202,,,
-0.105,0.064,1.8271,0.0688,0.6303,3.2213,-0.2101,32.2,100162.0,,,,,,,,,,
-0.1,,,,,,,,,-0.024,-1.92,2.003,-9.572,0.819,0.05,0.25,,,
-0.095,0.0703,2.043,0.1001,0.5602,4.5518,-0.2801,32.2,100143.0,,,,,,,,,,
-0.09,,,,,,,,,0.011,-1.917,2.002,-9.572,0.819,-0.2,3.578,,,
-0.085,0.0752,2.0508,0.0908,1.1204,-0.2801,-0.9804,32.2,100149.0,,,,,,,,,,
-0.08,,,,,,,,,0.096,-1.913,2.002,-9.573,0.82,0.05,8.146,,,
-0.075,0.0469,2.041,0.0581,1.7507,-3.4314,-0.7703,32.2,100097.0,,,,,,,,,,
-0.07,,,,,,,,,0.244,-1.913,2.003,-9.573,0.82,0.05,14.455,39.389991760253906,-8.289570808410645,12.0
-0.065,0.0439,2.0483,0.022,1.4006,1.2605,-0.2801,32.2,100144.0,,,,,,,,,,
-0.06,,,,,,,,,0.472,-1.915,2.003,-9.572,0.82,0.39,21.669,,,
-0.055,0.0967,2.0513,0.0322,1.7507,9.6639,0.7003,32.2,100122.0,,,,,,,,,,
-0.05,,,,,,,,,0.742,-1.914,2.003,-9.573,0.821,0.3,26.179,,,
-0.045,0.0552,2.2202,0.1655,0.2801,3.9216,0.1401,32.2,100116.0,,,,,,,,,,
-0.04,,,,,,,,,1.056,-1.906,2.001,-9.575,0.824,0.39,30.392,,,
-0.035,0.0908,2.3247,-0.0049,0.8403,1.7507,-0.7703,32.2,100127.0,,,,,,,,,,
-0.03,,,,,,,,,1.371,-1.902,2.0,-9.575,0.824,0.39,30.43,,,
-0.025,0.0684,2.4644,0.0776,0.9804,6.1625,-1.0504,32.2,100127.0,,,,,,,,,,
-0.02,,,,,,,,,1.692,-1.9,2.001,-9.576,0.824,0.73,30.536,,,
-0.015,0.0703,2.6328,0.0913,0.6303,9.6639,-0.8403,32.2,100154.0,,,,,,,,,,
-0.01,,,,,,,,,2.034,-1.895,2.001,-9.577,0.826,1.71,30.584,,,
-0.005,0.0669,2.7905,0.0596,0.4902,0.3501,-0.6303,32.2,100125.0,,,,,,,,,,
0.0,,,,,,,,,2.376,-1.886,2.0,-9.578,0.827,1.71,30.594,,,
0.005,0.0669,3.0439,0.0645,1.3305,-2.591,-0.5602,32.2,100181.0,,,,,,,,,,
0.01,,,,,,,,,2.715,10.0,0.0,0.0,0.0,1.71,33.921,,,
0.015,0.0713,3.4941,0.0854,2.521,6.2325,0.0,32.2,100166.0,,,,,,,,,,
0.02,,,,,,,,,3.074,10.0,0.0,-0.001,0.0,1.71,35.98,,,
0.025,0.0688,3.5444,0.104,1.4006,8.9636,-1.4706,32.2,100161.0,,,,,,,,,,
0.03,,,,,,,,,3.462,9.999,0.001,0.004,0.0,1.71,38.73,,,
0.035,0.0552,3.5801,0.0728,-0.2101,2.8711,-0.7003,32.2,100140.0,,,,,,,,,,
0.04,,,,,,,,,3.882,9.999,0.002,0.012,-0.001,1.71,42.048,,,
0.045,0.0752,3.7832,0.1128,0.3501,8.3333,-0.2801,32.2,100114.0,,,,,,,,,,
0.05,,,,,,,,,4.334,9.999,0.001,0.015,-0.001,0.62,45.155,,,
0.055,0.1001,3.8936,0.1099,0.2801,0.07,-0.5602,32.2,100124.0,,,,,,,,,,
0.06,,,,,,,,,4.835,9.999,0.0,0.023,-0.001,0.62,50.146,,,
0.065,0.1016,3.8374,0.0767,0.4902,-0.5602,-0.4202,32.2,100133.0,,,,,,,,,,
0.07,,,,,,,,,5.425,9.999,0.0,0.023,-0.001,0.62,59.014,,,
0.075,0.0728,3.7046,0.1138,0.0,4.0616,-0.3501,32.2,100104.0,,,,,,,,,,
0.08,,,,,,,,,6.025,9.999,0.0,0.023,-0.001,0.62,60.005,,,
0.085,0.0986,3.5806,0.1016,0.1401,1.1905,-0.4202,32.2,100102.0,,,,,,,,,,
0.09,,,,,,,,,6.632,9.999,0.0,0.027,-0.001,1.2,60.707,,,
0.095,0.0928,3.4985,0.1089,0.2101,-0.5602,-0.7703,32.2,100100.0,,,,,,,,,,
0.1,,,,,,,,,7.239,9.999,-0.001,0.029,-0.001,1.2,60.716,,,
0.105,0.0776,3.5034,0.0752,0.4902,4.4118,-1.4706,32.2,100118.0,,,,,,,,,,
0.11,,,,,,,,,7.846,9.999,-0.001,0.028,-0.002,1.96,60.716,,,
0.115,0.0542,3.5645,0.0908,0.9804,4.8319,-1.7507,32.2,100121.0,,,,,,,,,,
0.12,,,,,,,,,8.453,9.999,-0.002,0.033,-0.003,2.46,60.716,,,
0.125,0.0854,3.6235,0.1074,0.4902,0.3501,-1.3305,32.2,100115.0,,,,,,,,,,
0.13,,,,,,,,,9.06,9.999,-0.001,0.037,-0.004,2.46,60.716,39.389991760253906,-8.289570808410645,12.0
0.135,0.0854,3.6841,0.1357,0.5602,-2.381,-1.7507,32.2,100080.0,,,,,,,,,,
0.14,,,,,,,,,9.676,9.999,-0.002,0.038,-0.005,2.72,61.563,,,
0.145,0.0913,3.6846,0.1196,0.9804,-4.5518,-1.3305,32.2,100090.0,,,,,,,,,,
0.15,,,,,,,,,10.291,9.999,-0.002,0.036,-0.006,2.72,61.563,,,
0.155,0.0522,3.6582,0.1035,1.2605,-2.8711,-1.1204,32.2,100090.0,,,,,,,,,,
0.16,,,,,,,,,10.907,9.999,-0.002,0.033,-0.007,3.64,61.563,,,
0.165,0.5269,3.6357,0.1753,2.2409,-3.5014,-2.8711,32.2,100140.0,,,,,,,,,,
0.17,,,,,,,,,11.523,9.999,-0.001,0.031,-0.007,3.81,61.563,,,
0.175,0.2607,3.4653,0.0122,2.3109,17.7171,0.2801,32.2,100123.0,,,,,,,,,,
0.18,,,,,,,,,12.138,9.999,0.0,0.028,-0.01,3.81,61.563,,,
0.185,0.2612,3.6826,0.0518,0.8403,7.7031,-8.0532,32.2,100110.0,,,,,,,,,,
0.19,,,,,,,,,12.754,9.999,0.0,0.044,-0.009,2.72,61.563,,,
0.195,0.0835,3.5493,0.0728,-1.1905,3.7115,-11.4146,32.2,100131.0,,,,,,,,,,
0.2,,,,,,,,,13.372,9.999,0.0,0.051,-0.016,2.72,61.803,,,
0.205,0.0679,3.8228,0.0977,-3.0812,-9.8039,-10.1541,32.2,100124.0,,,,,,,,,,
0.21,,,,,,,,,13.99,9.999,-0.001,0.054,-0.025,2.72,61.803,,,
0.215,0.0923,3.8691,0.1304,0.0,14.3557,-9.8739,32.2,100126.0,,,,,,,,,,
0.22,,,,,,,,,14.612,9.999,-0.004,0.046,-0.034,2.72,62.245,,,
0.225,-0.2441,3.6797,0.1924,-2.381,10.8543,-9.5938,32.2,100094.0,,,,,,,,,,
0.23,,,,,,,,,15.239,9.999,-0.005,0.059,-0.042,2.04,62.726,,,
0.235,0.0103,3.8013,0.1074,3.8515,14.7059,-3.9916,32.2,100119.0,,,,,,,,,,
0.24,,,,,,,,,15.866,9.999,-0.008,0.069,-0.05,2.04,62.669,,,
0.245,0.1226,3.8652,0.0952,0.6303,-9.0336,5.9524,32.2,100095.0,,,,,,,,,,
0.25,,,,,,,,,16.493,9.999,-0.005,0.082,-0.054,2.04,62.669,,,
0.255,0.1826,3.811,0.0288,4.0616,0.7703,0.6303,32.2,100059.0,,,,,,,,,,
0.26,,,,,,,,,17.12,9.999,-0.005,0.075,-0.048,2.04,62.726,,,
0.265,0.1611,3.7651,-0.0601,1.9608,-10.6443,0.8403,32.2,100082.0,,,,,,,,,,
0.27,,,,,,,,,17.77,9.999,-0.002,0.076,-0.047,2.38,65.063,,,
0.275,0.1567,3.7437,-0.0098,0.7703,-3.6415,-2.0308,32.2,100096.0,,,,,,,,,,
0.28,,,,,,,,,18.421,9.999,-0.001,0.067,-0.046,3.14,65.063,,,
0.285,0.1421,3.7671,0.002,-1.4006,-7.2129,-3.7115,32.2,100096.0,,,,,,,,,,
0.29,,,,,,,,,19.071,9.999,-0.001,0.064,-0.048,4.31,65.063,,,
0.295,0.0986,3.9272,0.0703,-3.9216,-7.563,-4.4818,32.2,100070.0,,,,,,,,,,
0.3,,,,,,,,,19.722,9.999,-0.003,0.058,-0.051,4.31,65.063,,,
0.305,0.1128,3.8096,0.1289,-3.0812,-4.6919,-3.4314,32.2,100060.0,,,,,,,,,,
0.31,,,,,,,,,20.373,9.999,-0.008,0.052,-0.054,4.4,65.063,,,
0.315,0.1528,3.9087,0.1655,-1.2605,-6.5126,-3.9916,32.2,100064.0,,,,,,,,,,
0.32,,,,,,,,,21.023,9.999,-0.011,0.048,-0.057,4.48,65.063,,,
0.325,0.7954,3.7388,0.5986,-3.7815,-18.1373,4.1317,32.2,100083.0,,,,,,,,,,
0.33,,,,,,,,,21.675,9.999,-0.013,0.043,-0.06,5.49,65.227,,,
0.335,0.501,3.6797,0.5146,2.0308,0.7703,-11.4846,32.2,100060.0,,,,,,,,,,
0.34,,,,,,,,,22.328,9.999,-0.017,0.028,-0.056,5.49,65.227,,,
0.345,0.0835,3.8921,0.2656,15.056,-11.2745,-25.6303,32.2,100057.0,,,,,,,,,,
0.35,,,,,,,,,22.972,9.999,-0.016,0.029,-0.066,6.5,64.39,,,
0.355,-0.1416,3.8335,0.0552,16.0364,-15.6162,-26.5406,32.2,100076.0,,,,,,,,,,
0.36,,,,,,,,,23.616,9.999,-0.004,0.019,-0.088,6.5,64.39,,,
0.365,-0.5474,3.5991,-0.3774,10.3641,-36.9748,-7.0028,32.2,100075.0,,,,,,,,,,
0.37,,,,,,,,,24.268,9.999,0.008,0.006,-0.111,6.5,65.227,,,
0.375,0.3159,3.7168,-0.2407,3.0812,-20.3081,10.4342,32.2,100064.0,,,,,,,,,,
0.38,,,,,,,,,24.92,9.999,0.016,-0.025,-0.117,6.5,65.227,,,
0.385,0.4888,3.7173,0.1147,-6.1625,-27.9412,12.395,32.2,100065.0,,,,,,,,,,
0.39,,,,,,,,,25.573,9.999,0.018,-0.043,-0.107,7.0,65.227,,,
0.395,0.4717,3.6479,0.1572,-3.7115,-24.0896,-7.2129,32.2,100045.0,,,,,,,,,,
0.4,,,,,,,,,26.211,9.999,0.012,-0.067,-0.096,7.0,63.832,,,
0.405,0.0649,3.6587,0.0518,-2.2409,2.1709,-13.0952,32.2,100065.0,,,,,,,,,,
0.41,,,,,,,,,26.845,9.999,0.008,-0.087,-0.102,7.0,63.409,,,
0.415,-0.1836,3.6538,-0.062,-2.521,26.6106,-15.4062,32.2,100037.0,,,,,,,,,,
0.42,,,,,,,,,27.479,9.998,0.005,-0.085,-0.113,6.92,63.4,,,
0.425,-0.1377,3.6631,0.1118,-5.1821,39.7759,-2.7311,32.2,100028.0,,,,,,,,,,
0.43,,,,,,,,,28.106,9.999,0.002,-0.061,-0.127,7.0,62.669,,,
0.435,-0.1479,3.5977,0.064,-5.3922,33.8235,2.521,32.2,100039.0,,,,,,,,,,
0.44,,,,,,,,,28.729,9.999,-0.001,-0.026,-0.129,7.0,62.342,,,
0.445,-0.0981,3.4951,-0.0737,1.4006,47.8992,-1.8207,32.2,100077.0,,,,,,,,,,
0.45,,,,,,,,,29.352,9.999,-0.006,0.003,-0.126,7.0,62.255,,,
0.455,0.0894,3.4141,-0.1797,-3.8515,41.3866,8.4034,32.2,100025.0,,,,,,,,,,
0.46,,,,,,,,,29.973,9.999,-0.005,0.045,-0.128,7.0,62.159,,,
0.465,0.6318,3.4233,0.3027,-10.3641,32.2129,14.7059,32.2,99995.0,,,,,,,,,,
0.47,,,,,,,,,30.595,9.998,-0.009,0.082,-0.12,8.6,62.159,,,
0.475,0.7959,3.2563,0.5371,-3.9216,32.2829,4.4818,32.2,100026.0,,,,,,,,,,
0.48,,,,,,,,,31.215,9.998,-0.018,0.11,-0.107,9.11,62.043,,,
0.485,-0.021,3.5562,0.1245,11.4146,21.4986,-23.9496,32.2,100013.0,,,,,,,,,,
0.49,,,,,,,,,31.826,9.998,-0.022,0.139,-0.103,9.28,61.053,,,
0.495,-0.2358,3.459,-0.2422,7.2129,-2.7311,-13.7255,32.2,100050.0,,,,,,,,,,
0.5,,,,,,,,,32.428,9.997,-0.013,0.158,-0.123,10.03,60.235,,,
0.505,0.0244,3.5278,-0.2334,1.3305,5.6022,2.8011,32.2,100022.0,,,,,,,,,,
0.51,,,,,,,,,33.019,9.997,-0.007,0.156,-0.135,10.03,59.033,,,
0.515,0.1821,3.6177,0.189,-5.7423,9.0336,2.3109,32.2,100021.0,,,,,,,,,,
0.52,,,,,,,,,33.609,9.997,-0.007,0.161,-0.132,10.2,59.033,,,
0.525,0.1826,3.6426,0.207,-2.8711,5.7423,-2.0308,32.2,100013.0,,,,,,,,,,
0.53,,,,,,,,,34.199,9.997,-0.012,0.169,-0.13,10.29,59.033,,,
0.535,0.189,3.6489,0.1982,0.9104,-8.6835,-0.9104,32.2,100017.0,,,,,,,,,,
0.54,,,,,,,,,34.79,9.997,-0.016,0.175,-0.131,10.54,59.033,,,
0.545,-0.0029,3.6953,0.0259,2.8711,-8.1232,-8.8235,32.2,100034.0,,,,,,,,,,
0.55,,,,,,,,,35.386,9.997,-0.016,0.168,-0.132,10.62,59.678,,,
0.555,-0.1147,3.7241,0.0444,0.07,-10.4342,-6.2325,32.2,100038.0,,,,,,,,,,
0.56,,,,,,,,,35.989,9.997,-0.014,0.161,-0.139,10.62,60.235,,,
0.565,0.0757,3.6919,0.0952,-0.2801,-9.3137,1.6807,32.2,100029.0,,,,,,,,,,
0.57,,,,,,,,,36.603,9.997,-0.015,0.152,-0.144,10.54,61.447,,,
0.575,0.0459,3.6924,0.0864,2.0308,-7.6331,-4.972,32.2,100024.0,,,,,,,,,,
0.58,,,,,,,,,37.222,9.997,-0.016,0.144,-0.143,10.54,61.938,,,
0.585,-0.0288,3.7202,0.0742,1.8908,-8.4734,-5.6723,32.2,100028.0,,,,,,,,,,
0.59,,,,,,,,,37.842,9.997,-0.015,0.138,-0.147,10.37,62.063,,,
0.595,0.0581,3.7021,0.0957,1.4006,-9.7339,-0.6303,32.2,100016.0,,,,,,,,,,
0.6,,,,,,,,,38.471,9.997,-0.014,0.131,-0.151,10.37,62.909,,,
0.605,0.0327,3.708,0.0815,2.3109,-9.7339,-4.2017,32.2,100032.0,,,,,,,,,,
0.61,,,,,,,,,39.1,9.998,-0.014,0.123,-0.151,10.37,62.919,,,
0.615,-0.0249,3.7168,0.0757,2.7311,-10.7843,-4.6919,32.2,100005.0,,,,,,,,,,
0.62,,,,,,,,,39.729,9.998,-0.013,0.115,-0.155,10.03,62.976,,,
0.625,0.041,3.7002,0.0757,2.381,-11.9748,-1.4706,32.2,100022.0,,,,,,,,,,
0.63,,,,,,,,,40.36,9.998,-0.011,0.106,-0.159,10.03,63.111,,,
0.635,0.0259,3.7119,0.0864,2.521,-13.0952,-4.0616,32.2,100013.0,,,,,,,,,,
0.64,,,,,,,,,40.99,9.998,-0.01,0.096,-0.16,10.03,63.111,,,
0.645,-0.0078,3.7148,0.0732,3.2913,-14.2857,-3.9216,32.2,100015.0,,,,,,,,,,
0.65,,,,,,,,,41.622,9.998,-0.009,0.085,-0.163,10.37,63.226,,,
0.655,0.0444,3.7056,0.084,3.0812,-16.1064,-1.4706,32.2,100031.0,,,,,,,,,,
0.66,,,,,,,,,42.253,9.998,-0.007,0.072,-0.166,10.54,63.226,,,
0.665,0.0273,3.7134,0.0928,3.7115,-16.8768,-3.6415,32.2,100023.0,,,,,,,,,,
0.67,,,,,,,,,42.884,9.998,-0.005,0.059,-0.167,10.54,63.226,,,
0.675,0.0005,3.7158,0.0718,4.2717,-18.1373,-3.6415,32.3,100014.0,,,,,,,,,,
0.68,,,,,,,,,43.516,9.998,-0.003,0.044,-0.17,10.54,63.303,,,
0.685,0.0342,3.709,0.0938,3.7115,-20.1681,-1.6807,32.2,100010.0,,,,,,,,,,
0.69,,,,,,,,,44.148,9.998,0.0,0.029,-0.173,11.04,63.303,,,
0.695,0.0181,3.7158,0.0894,4.7619,-20.7983,-3.3613,32.2,100001.0,,,,,,,,,,
0.7,,,,,,,,,44.78,9.998,0.001,0.012,-0.174,11.13,63.303,,,
0.705,0.0054,3.7188,0.0747,5.1821,-22.0588,-3.0112,32.2,100014.0,,,,,,,,,,
0.71,,,,,,,,,45.412,9.998,0.004,-0.005,-0.177,11.21,63.332,,,
0.715,0.0381,3.7129,0.0811,4.902,-23.6695,-1.6106,32.2,100009.0,,,,,,,,,,
0.72,,,,,,,,,46.044,9.998,0.008,-0.024,-0.179,11.21,63.332,,,
0.725,0.022,3.7119,0.0854,5.5322,-24.3697,-2.9412,32.2,99998.0,,,,,,,,,,
0.73,,,,,,,,,46.676,9.998,0.011,-0.044,-0.18,11.21,63.332,,,
0.735,0.0171,3.7207,0.0718,5.8824,-25.0,-2.521,32.2,99980.0,,,,,,,,,,
0.74,,,,,,,,,47.308,9.998,0.014,-0.065,-0.182,11.21,63.332,,,
0.745,0.0381,3.7188,0.0864,5.3922,-26.3305,-1.8908,32.2,99999.0,,,,,,,,,,
0.75,,,,,,,,,47.94,9.997,0.019,-0.087,-0.184,11.55,63.332,,,
0.755,0.0181,3.7212,0.0884,6.1625,-27.1008,-2.9412,32.2,99973.0,,,,,,,,,,
0.76,,,,,,,,,48.571,9.997,0.022,-0.11,-0.186,11.63,63.38,,,
0.765,0.0166,3.7153,0.0806,6.4426,-28.5714,-2.1709,32.2,99980.0,,,,,,,,,,
0.77,,,,,,,,,49.203,9.997,0.026,-0.133,-0.188,12.3,63.38,,,
0.775,0.0337,3.709,0.0898,6.4426,-30.6723,-1.6106,32.2,99973.0,,,,,,,,,,
0.78,,,,,,,,,49.835,9.996,0.031,-0.157,-0.189,12.47,63.38,,,
0.785,0.0142,3.7124,0.083,7.0728,-32.0728,-2.381,32.2,99971.0,,,,,,,,,,
0.79,,,,,,,,,50.467,9.996,0.035,-0.184,-0.191,12.55,63.38,,,
0.795,0.0186,3.7114,0.0762,7.0728,-33.6134,-1.5406,32.2,99952.0,,,,,,,,,,
0.8,,,,,,,,,51.099,9.995,0.04,-0.212,-0.192,14.07,63.371,,,
0.805,0.0161,3.7051,0.0835,7.3529,-37.1148,-1.8207,32.2,99962.0,,,,,,,,,,
0.81,,,,,,,,,51.73,9.995,0.045,-0.241,-0.193,14.07,63.323,,,
0.815,0.0171,3.7041,0.0786,7.2829,-39.0756,-0.9804,32.2,99985.0,,,,,,,,,,
0.82,,,,,,,,,52.361,9.994,0.05,-0.273,-0.195,14.66,63.313,,,
0.825,0.0278,3.6987,0.0898,7.2829,-41.3866,-0.8403,32.2,99942.0,,,,,,,,,,
0.83,,,,,,,,,52.992,9.993,0.055,-0.306,-0.195,14.66,63.313,,,
0.835,0.0122,3.7061,0.082,7.7731,-43.2073,-1.1905,32.2,99948.0,,,,,,,,,,
0.84,,,,,,,,,53.622,9.992,0.06,-0.342,-0.196,14.66,63.294,,,
0.845,0.0205,3.707,0.0854,7.493,-45.7983,-0.2801,32.2,99996.0,,,,,,,,,,
0.85,,,,,,,,,54.252,9.99,0.065,-0.38,-0.196,14.83,63.246,,,
0.855,0.0269,3.6982,0.0962,7.6331,-48.3193,-0.2101,32.2,99957.0,,,,,,,,,,
0.86,,,,,,,,,54.882,9.988,0.071,-0.419,-0.196,14.83,63.207,,,
0.865,0.0151,3.6997,0.0801,8.1232,-50.0,-0.4202,32.2,99969.0,,,,,,,,,,
0.87,,,,,,,,,55.511,9.987,0.076,-0.461,-0.196,15.59,63.188,,,
0.875,0.021,3.7017,0.0903,7.6331,-52.451,0.2801,32.2,99941.0,,,,,,,,,,
0.88,,,,,,,,,56.139,9.984,0.081,-0.504,-0.196,15.59,63.169,,,
0.885,0.02,3.6968,0.0942,7.7031,-54.5518,0.2801,32.2,99958.0,,,,,,,,,,
0.89,,,,,,,,,56.768,9.982,0.086,-0.55,-0.196,16.01,63.149,,,
0.895,0.0137,3.7075,0.0801,7.9132,-56.3725,0.2801,32.2,99947.0,,,,,,,,,,
0.9,,,,,,,,,57.395,9.979,0.091,-0.597,-0.196,15.92,63.101,,,
0.905,0.0176,3.7041,0.0898,7.423,-58.6134,0.9104,32.2,99930.0,,,,,,,,,,
0.91,,,,,,,,,58.023,9.976,0.096,-0.646,-0.195,16.01,63.101,,,
0.915,0.0176,3.708,0.0913,7.493,-60.6443,0.8403,32.2,99932.0,,,,,,,,,,
0.92,,,,,,,,,58.65,9.973,0.101,-0.697,-0.194,16.76,63.101,,,
0.925,0.0195,3.709,0.0884,7.423,-61.9748,0.9804,32.2,99923.0,,,,,,,,,,
0.93,,,,,,,,,59.278,9.969,0.106,-0.749,-0.193,16.76,63.149,,,
0.935,0.0249,3.7012,0.0996,6.9328,-64.1457,1.3305,32.2,99937.0,,,,,,,,,,
0.94,,,,,,,,,59.905,9.965,0.11,-0.803,-0.192,16.85,63.149,,,
0.945,0.0215,3.6978,0.0942,7.0728,-66.3165,1.1204,32.2,99922.0,,,,,,,,,,
0.95,,,,,,,,,60.532,9.96,0.114,-0.858,-0.191,17.35,63.101,,,
0.955,0.0176,3.7041,0.0825,6.6527,-68.6275,1.3305,32.2,99926.0,,,,,,,,,,
0.96,,,,,,,,,61.158,9.955,0.119,-0.916,-0.19,17.69,63.101,,,
0.965,0.0308,3.7012,0.0952,6.2325,-71.3585,1.6807,32.2,99929.0,,,,,,,,,,
0.97,,,,,,,,,61.785,9.949,0.122,-0.975,-0.189,18.11,63.149,,,
0.975,0.0225,3.708,0.0796,6.2325,-73.1793,1.4006,32.2,99921.0,,,,,,,,,,
0.98,,,,,,,,,62.412,9.943,0.126,-1.037,-0.187,18.28,63.149,,,
0.985,0.0205,3.7119,0.0928,5.6022,-76.1905,1.8207,32.2,99909.0,,,,,,,,,,
0.99,,,,,,,,,63.038,9.936,0.129,-1.1,-0.186,18.36,63.149,,,
0.995,0.022,3.709,0.0986,5.1821,-79.0616,2.1008,32.2,99915.0,,,,,,,,,,
1.0,,,,,,,,,63.664,9.929,0.132,-1.165,-0.184,18.61,63.149,,,
1.005,0.021,3.7144,0.0977,5.3922,-81.7227,1.8908,32.2,99905.0,,,,,,,,,,
1.01,,,,,,,,,64.291,9.92,0.134,-1.234,-0.183,18.87,63.226,,,
1.015,0.0229,3.7192,0.0884,4.902,-84.8739,2.381,32.2,99916.0,,,,,,,,,,
1.02,,,,,,,,,64.917,9.911,0.137,-1.304,-0.181,18.95,63.226,,,
1.025,0.0259,3.7168,0.0913,4.6218,-87.605,2.591,32.2,99874.0,,,,,,,,,,
1.03,,,,,,,,,65.543,9.902,0.138,-1.377,-0.18,19.03,63.226,39.389991760253906,-8.289570808410645,0.0
1.035,0.0176,3.7124,0.0869,4.4818,-90.2661,2.381,32.2,99876.0,,,,,,,,,,
1.04,,,,,,,,,66.169,9.891,0.14,-1.452,-0.178,19.46,63.246,,,
1.045,0.0186,3.7061,0.0947,3.7815,-93.4174,2.9412,32.3,99897.0,,,,,,,,,,
1.05,,,,,,,,,66.795,9.879,0.141,-1.53,-0.176,19.54,63.303,,,
1.055,0.0229,3.7056,0.104,3.7115,-96.4286,3.2913,32.2,99918.0,,,,,,,,,,
1.06,,,,,,,,,67.421,9.866,0.142,-1.61,-0.174,20.05,63.303,,,
1.065,0.0156,3.708,0.0962,3.8515,-99.8599,3.1513,32.2,99878.0,,,,,,,,,,
1.07,,,,,,,,,68.047,9.853,0.143,-1.693,-0.171,20.05,63.303,,,
1.075,0.019,3.7036,0.0962,3.5014,-103.4314,3.7115,32.2,99871.0,,,,,,,,,,
1.08,,,,,,,,,68.672,9.838,0.143,-1.778,-0.169,20.38,63.303,,,
1.085,0.0239,3.7104,0.104,3.3613,-106.9328,3.8515,32.2,99856.0,,,,,,,,,,
1.09,,,,,,,,,69.296,9.821,0.143,-1.867,-0.167,21.06,63.246,,,
1.095,0.0132,3.7197,0.0981,3.3613,-110.8543,3.7815,32.2,99860.0,,,,,,,,,,
1.1,,,,,,,,,69.922,9.803,0.143,-1.958,-0.164,22.66,63.275,,,
1.105,0.0122,3.7246,0.1011,3.1513,-114.986,4.4118,32.2,99868.0,,,,,,,,,,
1.11,,,,,,,,,70.546,9.784,0.143,-2.052,-0.161,22.82,63.275,,,
1.115,0.0112,3.7207,0.1025,3.0812,-121.8487,4.4818,32.2,99847.0,,,,,,,,,,
1.12,,,,,,,,,71.171,9.763,0.143,-2.15,-0.158,22.99,63.275,,,
1.125,0.0151,3.7212,0.0991,3.0812,-125.5602,5.042,32.2,99903.0,,,,,,,,,,
1.13,,,,,,,,,71.795,9.74,0.142,-2.254,-0.155,23.25,63.275,,,
1.135,0.0161,3.7246,0.1021,2.9412,-129.3417,4.902,32.2,99834.0,,,,,,,,,,
1.14,,,,,,,,,72.418,9.715,0.141,-2.36,-0.152,23.25,63.275,,,
1.145,0.0127,3.7197,0.1152,3.2213,-133.0532,5.042,32.2,99847.0,,,,,,,,,,
1.15,,,,,,,,,73.043,9.688,0.14,-2.469,-0.149,23.5,63.457,,,
1.155,0.0146,3.7202,0.1064,3.2213,-136.1345,5.4622,32.2,99834.0,,,,,,,,,,
1.16,,,,,,,,,73.668,9.658,0.139,-2.581,-0.145,24.17,63.457,,,
1.165,0.0137,3.7271,0.1216,3.0812,-138.8655,5.2521,32.2,99855.0,,,,,,,,,,
1.17,,,,,,,,,74.293,9.627,0.138,-2.695,-0.141,24.51,63.467,,,
1.175,0.0059,3.7358,0.0947,3.5014,-142.2269,5.1821,32.2,99891.0,,,,,,,,,,
1.18,,,,,,,,,74.917,9.594,0.137,-2.811,-0.138,24.59,63.476,,,
1.185,0.0181,3.7378,0.0918,2.451,-145.5182,5.8123,32.2,99805.0,,,,,,,,,,
1.19,,,,,,,,,75.54,9.559,0.136,-2.93,-0.134,24.59,63.486,,,
1.195,0.0181,3.7305,0.1011,1.7507,-148.5994,5.3922,32.2,99828.0,,,,,,,,,,
1.2,,,,,,,,,76.165,9.521,0.134,-3.051,-0.13,25.27,63.553,,,
1.205,0.0098,3.7378,0.0879,3.8515,-151.6807,5.042,32.2,99839.0,,,,,,,,,,
1.21,,,,,,,,,76.788,9.481,0.132,-3.174,-0.127,25.27,63.553,,,
1.215,0.0234,3.7363,0.1123,6.9328,-156.7927,5.2521,32.2,99847.0,,,,,,,,,,
1.22,,,,,,,,,77.412,9.438,0.131,-3.298,-0.123,25.94,63.602,,,
1.225,0.0303,3.729,0.1099,7.6331,-159.7339,5.042,32.3,99812.0,,,,,,,,,,
1.23,,,,,,,,,78.036,9.392,0.133,-3.427,-0.119,25.94,63.669,,,
1.235,0.0298,3.729,0.1108,4.7619,-162.8852,4.972,32.2,99808.0,,,,,,,,,,
1.24,,,,,,,,,78.659,9.344,0.135,-3.557,-0.114,25.94,63.669,,,
1.245,0.0288,3.7305,0.1206,-0.07,-167.2969,5.4622,32.3,99815.0,,,,,,,,,,
1.25,,,,,,,,,79.282,9.292,0.135,-3.689,-0.111,26.36,63.669,,,
1.255,0.0371,3.7388,0.1201,-3.9216,-173.5294,5.6022,32.2,99807.0,,,,,,,,,,
1.26,,,,,,,,,79.904,9.238,0.131,-3.824,-0.108,26.87,63.669,,,
1.265,0.0352,3.7383,0.1006,-3.3613,-178.6415,5.6723,32.2,99788.0,,,,,,,,,,
1.27,,,,,,,,,80.528,9.179,0.123,-3.963,-0.107,27.96,63.775,,,
1.275,0.042,3.7417,0.1226,-0.3501,-184.8039,6.0224,32.2,99824.0,,,,,,,,,,
1.28,,,,,,,,,81.151,9.116,0.116,-4.106,-0.105,28.22,63.784,,,
1.285,0.041,3.7549,0.1284,3.7115,-191.8067,5.5322,32.3,99811.0,,,,,,,,,,
1.29,,,,,,,,,81.773,9.049,0.111,-4.252,-0.103,27.96,63.784,,,
1.295,0.0303,3.7656,0.1372,6.9328,-198.5994,5.9524,32.2,99761.0,,,,,,,,,,
1.3,,,,,,,,,82.395,8.977,0.11,-4.402,-0.099,28.22,63.813,,,
1.305,0.0522,3.7632,0.1064,6.0924,-203.7115,6.9328,32.2,99772.0,,,,,,,,,,
1.31,,,,,,,,,83.016,8.899,0.11,-4.557,-0.093,28.3,63.823,,,
1.315,0.0347,3.769,0.1348,0.7703,-210.8543,6.7227,32.2,99752.0,,,,,,,,,,
1.32,,,,,,,,,83.637,8.817,0.11,-4.714,-0.088,28.55,63.832,,,
1.325,0.0229,3.7681,0.1216,-2.8711,-215.6162,7.9832,32.2,99762.0,,,,,,,,,,
1.33,,,,,,,,,84.257,8.729,0.105,-4.875,-0.084,28.64,63.89,,,
1.335,0.0337,3.771,0.1089,-5.4622,-221.4986,8.8936,32.2,99771.0,,,,,,,,,,
1.34,,,,,,,,,84.881,8.636,0.097,-5.038,-0.081,30.24,64.15,,,
1.345,0.0083,3.7808,0.1294,-4.3417,-226.8207,8.8235,32.2,99762.0,,,,,,,,,,
1.35,,,,,,,,,85.506,8.538,0.087,-5.204,-0.079,31.58,64.313,,,
1.355,0.0327,3.7734,0.0981,0.9804,-231.1625,9.6639,32.2,99750.0,,,,,,,,,,
1.36,,,,,,,,,86.131,8.433,0.077,-5.371,-0.076,31.67,64.361,,,
1.365,0.0269,3.7764,0.0967,4.8319,-236.4846,9.4538,32.3,99733.0,,,,,,,,,,
1.37,,,,,,,,,86.756,8.324,0.071,-5.54,-0.071,32.43,64.409,,,
1.375,0.0137,3.7754,0.1299,6.1625,-239.5658,9.8739,32.2,99762.0,,,,,,,,,,
1.38,,,,,,,,,87.38,8.208,0.068,-5.71,-0.063,32.43,64.429,,,
1.385,0.0127,3.771,0.0933,5.3221,-239.4958,10.2941,32.2,99748.0,,,,,,,,,,
1.39,,,,,,,,,88.004,8.087,0.065,-5.88,-0.054,32.43,64.467,,,
1.395,0.0151,3.7695,0.1045,0.4202,-240.6863,10.9944,32.2,99730.0,,,,,,,,,,
1.4,,,,,,,,,88.627,7.963,0.062,-6.048,-0.046,32.43,64.467,,,
1.405,0.0176,3.769,0.0913,-2.9412,-240.6162,11.4846,32.2,99761.0,,,,,,,,,,
1.41,,,,,,,,,89.249,7.834,0.055,-6.213,-0.04,33.27,64.467,,,
1.415,0.0273,3.7725,0.1016,-0.1401,-241.5966,11.4146,32.2,99727.0,,,,,,,,,,
1.42,,,,,,,,,89.87,7.702,0.045,-6.376,-0.035,32.51,64.467,,,
1.425,0.0151,3.771,0.1094,2.6611,-242.7171,11.3445,32.2,99720.0,,,,,,,,,,
1.43,,,,,,,,,90.492,7.567,0.037,-6.537,-0.028,33.44,64.496,,,
1.435,0.0142,3.7729,0.1045,3.7815,-244.0476,11.5546,32.3,99704.0,,,,,,,,,,
1.44,,,,,,,,,91.112,7.427,0.031,-6.695,-0.02,33.61,64.496,,,
1.445,0.0161,3.7764,0.1084,4.0616,-244.7479,11.8347,32.2,99720.0,,,,,,,,,,
1.45,,,,,,,,,91.732,7.283,0.025,-6.852,-0.011,34.87,64.496,,,
1.455,0.0161,3.7744,0.105,4.902,-245.6583,11.5546,32.3,99736.0,,,,,,,,,,
1.46,,,,,,,,,92.351,7.135,0.02,-7.005,-0.002,35.13,64.496,,,
1.465,0.0078,3.7808,0.1079,5.3221,-247.0588,11.4146,32.2,99724.0,,,,,,,,,,
1.47,,,,,,,,,92.97,6.984,0.015,-7.156,0.006,35.13,64.496,,,
1.475,0.0171,3.7822,0.0933,7.6331,-248.5994,11.2745,32.2,99718.0,,,,,,,,,,
1.48,,,,,,,,,93.587,6.828,0.011,-7.305,0.016,35.38,64.496,,,
1.485,0.0098,3.7847,0.103,11.7647,-250.07,10.6443,32.2,99706.0,,,,,,,,,,
1.49,,,,,,,,,94.204,6.668,0.008,-7.451,0.027,35.63,64.506,,,
1.495,0.0093,3.7871,0.1016,10.5042,-250.9804,10.3641,32.2,99691.0,,,,,,,,,,
1.5,,,,,,,,,94.82,6.505,0.007,-7.594,0.04,35.97,64.534,,,
1.505,0.0083,3.7866,0.104,6.4426,-252.1709,10.2941,32.2,99681.0,,,,,,,,,,
1.51,,,,,,,,,95.436,6.337,0.007,-7.735,0.052,35.97,64.573,,,
1.515,0.0054,3.7876,0.1045,2.7311,-253.0812,10.084,32.3,99702.0,,,,,,,,,,
1.52,,,,,,,,,96.051,6.166,0.004,-7.872,0.062,36.14,64.659,,,
1.525,0.0005,3.79,0.0962,1.6106,-254.3417,9.5238,32.2,99663.0,,,,,,,,,,
1.53,,,,,,,,,96.666,5.991,0.0,-8.006,0.069,37.15,64.688,,,
1.535,0.0044,3.792,0.1025,4.2717,-255.9524,9.3838,32.2,99662.0,,,,,,,,,,
1.54,,,,,,,,,97.281,5.812,-0.005,-8.137,0.074,37.15,64.736,,,
1.545,0.0117,3.79,0.1006,8.3333,-257.8431,8.6835,32.3,99685.0,,,,,,,,,,
1.55,,,,,,,,,97.895,5.629,-0.008,-8.264,0.082,37.49,64.775,,,
1.555,-0.0083,3.7979,0.1108,8.1933,-259.5938,7.9132,32.3,99674.0,,,,,,,,,,
1.56,,,,,,,,,98.508,5.442,-0.009,-8.388,0.092,38.42,64.784,,,
1.565,0.0103,3.79,0.1245,8.4034,-261.5546,7.9832,32.2,99650.0,,,,,,,,,,
1.57,,,,,,,,,99.121,5.251,-0.01,-8.509,0.101,38.92,64.794,,,
1.575,0.0146,3.7939,0.1074,8.7535,-262.465,6.7927,32.3,99640.0,,,,,,,,,,
1.58,,,,,,,,,99.734,5.056,-0.01,-8.626,0.111,39.26,64.842,,,
1.585,0.0073,3.7886,0.1074,8.4734,-264.6359,6.2325,32.2,99630.0,,,,,,,,,,
1.59,,,,,,,,,100.345,4.857,-0.01,-8.739,0.12,39.85,64.842,,,
1.595,0.0107,3.7866,0.1177,8.1933,-266.6667,5.8824,32.2,99671.0,,,,,,,,,,
1.6,,,,,,,,,100.956,4.655,-0.009,-8.849,0.129,40.78,64.842,,,
1.605,0.0044,3.7822,0.1191,8.1232,-267.9272,4.972,32.3,99623.0,,,,,,,,,,
1.61,,,,,,,,,101.566,4.448,-0.007,-8.955,0.138,40.78,64.842,,,
1.615,0.0107,3.7725,0.1309,8.4734,-269.6779,4.6218,32.2,99617.0,,,,,,,,,,
1.62,,,,,,,,,102.175,4.238,-0.005,-9.056,0.145,40.86,64.842,,,
1.625,0.0137,3.7651,0.1084,10.8543,-270.8683,3.7115,32.3,99605.0,,,,,,,,,,
1.63,,,,,,,,,102.783,4.024,-0.003,-9.153,0.153,41.87,64.842,,,
1.635,0.0093,3.7686,0.1211,6.5126,-272.2689,3.1513,32.2,99649.0,,,,,,,,,,
1.64,,,,,,,,,103.39,3.807,0.0,-9.245,0.163,42.72,64.813,,,
1.645,0.0142,3.7749,0.1313,2.2409,-273.2493,2.9412,32.2,99626.0,,,,,,,,,,
1.65,,,,,,,,,103.995,3.586,0.003,-9.333,0.169,42.72,64.775,,,
1.655,0.019,3.7764,0.124,0.9804,-274.2997,2.3109,32.2,99613.0,,,,,,,,,,
1.66,,,,,,,,,104.599,3.363,0.005,-9.415,0.171,43.56,64.688,,,
1.665,0.0161,3.7788,0.1392,3.2913,-276.0504,1.6807,32.2,99615.0,,,,,,,,,,
1.67,,,,,,,,,105.201,3.137,0.007,-9.493,0.171,43.9,64.573,,,
1.675,0.0195,3.7754,0.125,7.493,-277.6611,1.2605,32.3,99608.0,,,,,,,,,,
1.68,,,,,,,,,105.801,2.908,0.01,-9.565,0.174,44.15,64.573,,,
1.685,0.0142,3.7749,0.1353,10.3641,-280.042,0.7003,32.2,99606.0,,,,,,,,,,
1.69,,,,,,,,,106.4,2.676,0.014,-9.633,0.179,44.66,64.554,,,
1.695,0.0181,3.7695,0.1318,6.5126,-280.8123,0.7003,32.2,99591.0,,,,,,,,,,
1.7,,,,,,,,,106.997,2.44,0.02,-9.695,0.187,44.83,64.544,,,
1.705,0.0078,3.7642,0.1289,4.3417,-282.0728,0.5602,32.2,99568.0,,,,,,,,,,
1.71,,,,,,,,,107.594,2.203,0.025,-9.752,0.192,44.99,64.544,,,
1.715,-0.0005,3.7671,0.1382,3.6415,-283.6134,0.1401,32.2,99600.0,,,,,,,,,,
1.72,,,,,,,,,108.189,1.962,0.029,-9.803,0.194,45.42,64.544,,,
1.725,0.0068,3.7686,0.1318,3.3613,-284.2437,0.4902,32.3,99584.0,,,,,,,,,,
1.73,,,,,,,,,108.782,1.72,0.034,-9.848,0.196,45.42,64.544,,,
1.735,0.019,3.7627,0.1245,2.381,-285.3641,0.1401,32.2,99572.0,,,,,,,,,,
1.74,,,,,,,,,109.374,1.475,0.039,-9.888,0.197,45.59,64.544,,,
1.745,0.0225,3.7593,0.1245,1.6807,-286.2045,-0.4902,32.3,99572.0,,,,,,,,,,
1.75,,,,,,,,,109.963,1.229,0.044,-9.922,0.198,46.09,64.438,,,
1.755,0.0181,3.7529,0.1377,0.0,-289.7059,-0.4202,32.2,99577.0,,,,,,,,,,
1.76,,,,,,,,,110.552,0.982,0.049,-9.949,0.197,46.85,64.419,,,
1.765,0.0176,3.7549,0.1318,-3.5014,-289.6359,-0.4202,32.3,99540.0,,,,,,,,,,
1.77,,,,,,,,,111.139,0.73,0.054,-9.971,0.195,47.44,64.39,,,
1.775,0.0337,3.7529,0.127,-5.8123,-290.056,0.2101,32.2,99565.0,,,,,,,,,,
1.78,,,,,,,,,111.724,0.479,0.058,-9.986,0.19,48.03,64.332,,,
1.785,0.0288,3.7539,0.1377,-4.6919,-290.8263,-0.3501,32.2,99556.0,,,,,,,,,,
1.79,,,,,,,,,112.308,0.226,0.062,-9.995,0.183,48.46,64.304,,,
1.795,0.0244,3.7515,0.1265,0.07,-291.6667,-0.1401,32.3,99539.0,,,,,,,,,,
1.8,,,,,,,,,112.889,-0.026,0.067,-9.998,0.176,48.46,64.236,,,
1.805,0.0322,3.7456,0.1133,3.8515,-293.1373,0.2101,32.2,99515.0,,,,,,,,,,
1.81,,,,,,,,,113.468,-0.28,0.071,-9.994,0.174,48.46,64.15,,,
1.815,0.0239,3.7451,0.1274,4.8319,-294.888,0.1401,32.2,99513.0,,,,,,,,,,
1.82,,,,,,,,,114.045,-0.535,0.075,-9.983,0.175,49.05,64.13,,,
1.825,0.0205,3.731,0.1079,2.381,-295.098,0.7703,32.3,99513.0,,,,,,,,,,
1.83,,,,,,,,,114.621,-0.791,0.079,-9.966,0.176,49.81,64.111,,,
1.835,0.0303,3.7212,0.1201,-0.7703,-295.8683,1.6807,32.3,99525.0,,,,,,,,,,
1.84,,,,,,,,,115.196,-1.047,0.082,-9.943,0.175,51.16,64.111,,,
1.845,0.0273,3.7168,0.1211,-0.2801,-296.4286,1.8207,32.2,99499.0,,,,,,,,,,
1.85,,,,,,,,,115.77,-1.303,0.085,-9.912,0.171,51.24,64.082,,,
1.855,0.019,3.707,0.1064,0.07,-296.7787,2.2409,32.3,99524.0,,,,,,,,,,
1.86,,,,,,,,,116.342,-1.558,0.088,-9.875,0.168,52.42,63.967,,,
1.865,0.0264,3.6968,0.1162,0.07,-297.619,2.9412,32.3,99509.0,,,,,,,,,,
1.87,,,,,,,,,116.911,-1.813,0.09,-9.832,0.165,52.51,63.957,,,
1.875,0.0176,3.6953,0.1089,0.4902,-298.4594,2.8711,32.2,99509.0,,,,,,,,,,
1.88,,,,,,,,,117.477,-2.067,0.092,-9.782,0.161,53.27,63.678,,,
1.885,0.0176,3.6851,0.1167,1.2605,-298.8796,3.2913,32.2,99472.0,,,,,,,,,,
1.89,,,,,,,,,118.039,-2.321,0.093,-9.725,0.158,53.44,63.486,,,
1.895,0.0234,3.6797,0.1133,1.6807,-299.5798,3.4314,32.2,99446.0,,,,,,,,,,
1.9,,,,,,,,,118.599,-2.573,0.094,-9.661,0.155,53.44,63.4,,,
1.905,0.021,3.6758,0.1118,2.1709,-300.07,3.2213,32.2,99464.0,,,,,,,,,,
1.91,,,,,,,,,119.154,-2.824,0.095,-9.591,0.152,53.77,63.207,,,
1.915,0.0161,3.6753,0.1045,2.8711,-300.9804,3.4314,32.3,99442.0,,,,,,,,,,
1.92,,,,,,,,,119.705,-3.074,0.095,-9.513,0.15,53.77,63.005,,,
1.925,0.0103,3.6685,0.1045,3.0812,-301.8207,3.4314,32.3,99441.0,,,,,,,,,,
1.93,,,,,,,,,120.255,-3.322,0.096,-9.43,0.148,54.62,62.976,,,
1.935,0.0142,3.6646,0.1094,3.9216,-302.1008,3.2213,32.2,99433.0,,,,,,,,,,
1.94,,,,,,,,,120.804,-3.569,0.096,-9.339,0.146,56.9,62.774,,,
1.945,0.0142,3.6606,0.1079,4.5518,-302.0308,3.0112,32.2,99428.0,,,,,,,,,,
1.95,,,,,,,,,121.35,-3.814,0.096,-9.242,0.145,57.58,62.669,,,
1.955,0.0078,3.6504,0.1167,4.972,-302.381,2.6611,32.3,99404.0,,,,,,,,,,
1.96,,,,,,,,,121.896,-4.055,0.096,-9.138,0.144,59.1,62.592,,,
1.965,-0.002,3.6362,0.1108,5.8123,-302.3109,2.451,32.3,99426.0,,,,,,,,,,
1.97,,,,,,,,,122.439,-4.295,0.096,-9.028,0.144,59.44,62.582,,,
1.975,0.0117,3.6289,0.1025,6.1625,-302.7311,2.3109,32.3,99403.0,,,,,,,,,,
1.98,,,,,,,,,122.979,-4.531,0.095,-8.912,0.144,59.52,62.447,,,
1.985,0.0122,3.6191,0.1162,6.0924,-303.2213,1.5406,32.3,99399.0,,,,,,,,,,
1.99,,,,,,,,,123.517,-4.764,0.095,-8.79,0.145,60.2,62.37,,,
1.995,0.0039,3.6123,0.1152,6.6527,-304.2717,0.7703,32.3,99403.0,,,,,,,,,,
2.0,,,,,,,,,124.052,-4.995,0.095,-8.661,0.146,60.62,62.293,,,
2.005,0.0078,3.6016,0.1025,6.7227,-305.042,0.3501,32.3,99408.0,,,,,,,,,,
2.01,,,,,,,,,124.584,-5.223,0.095,-8.525,0.147,60.79,62.092,,,
2.015,0.0156,3.5869,0.1245,6.8627,-306.4426,-0.1401,32.2,99360.0,,,,,,,,,,
2.02,,,,,,,,,125.112,-5.447,0.096,-8.383,0.148,62.31,61.813,,,
2.025,0.0078,3.5889,0.1123,7.2829,-306.8627,-1.1204,32.3,99390.0,,,,,,,,,,
2.03,,,,,,,,,125.636,-5.669,0.097,-8.235,0.15,62.65,61.668,,,
2.035,-0.0029,3.583,0.1177,7.1429,-307.493,-1.4006,32.3,99358.0,,,,,,,,,,
2.04,,,,,,,,,126.157,-5.887,0.098,-8.08,0.152,62.73,61.476,,,
2.045,0.0005,3.5806,0.1167,7.1429,-308.3333,-1.6807,32.3,99370.0,,,,,,,,,,
2.05,,,,,,,,,126.673,-6.102,0.1,-7.92,0.155,62.73,61.341,,,
2.055,0.0078,3.5713,0.123,6.7927,-309.2437,-2.381,32.2,99344.0,,,,,,,,,,
2.06,,,,,,,,,127.186,-6.312,0.102,-7.753,0.157,63.07,61.13,,,
2.065,0.022,3.54,0.1348,6.3725,-311.2745,-4.2717,32.3,99334.0,,,,,,,,,,
2.07,,,,,,,,,127.694,-6.519,0.104,-7.58,0.159,63.83,60.88,,,
2.075,0.0205,3.5264,0.1431,5.8824,-312.465,-4.6919,32.3,99331.0,,,,,,,,,,
2.08,,,,,,,,,128.202,-6.722,0.108,-7.401,0.162,65.52,60.841,,,
2.085,0.0176,3.5112,0.1074,5.112,-312.8852,-4.7619,32.2,99322.0,,,,,,,,,,
2.09,,,,,,,,,128.708,-6.92,0.112,-7.215,0.165,66.37,60.764,,,
2.095,0.0039,3.5,0.123,3.8515,-314.2857,-4.8319,32.3,99319.0,,,,,,,,,,
2.1,,,,,,,,,129.212,-7.114,0.117,-7.023,0.168,66.54,60.716,,,
2.105,0.0112,3.4985,0.1421,3.2213,-314.7759,-4.4818,32.2,99335.0,,,,,,,,,,
2.11,,,,,,,,,129.712,-7.304,0.122,-6.826,0.169,67.72,60.533,,,
2.115,0.0195,3.4961,0.1245,3.1513,-314.7759,-4.5518,32.3,99302.0,,,,,,,,,,
2.12,,,,,,,,,130.205,-7.488,0.128,-6.623,0.17,68.48,59.918,,,
2.125,0.0205,3.4971,0.1406,2.3109,-315.4062,-4.902,32.3,99321.0,,,,,,,,,,
2.13,,,,,,,,,130.693,-7.667,0.133,-6.415,0.17,68.57,59.649,,,
2.135,0.0254,3.4893,0.1221,1.4006,-316.3165,-4.6218,32.2,99291.0,,,,,,,,,,
2.14,,,,,,,,,131.175,-7.84,0.139,-6.202,0.17,68.82,59.35,,,
2.145,0.0205,3.4751,0.1465,0.6303,-318.1373,-4.6919,32.3,99309.0,,,,,,,,,,
2.15,,,,,,,,,131.654,-8.008,0.146,-5.984,0.17,69.58,59.129,,,
2.155,0.0127,3.4658,0.1245,-0.07,-319.1877,-4.4118,32.3,99270.0,,,,,,,,,,
2.16,,,,,,,,,132.13,-8.171,0.153,-5.76,0.168,69.67,59.1,,,
2.165,0.0239,3.4565,0.1147,-0.8403,-319.958,-3.6415,32.3,99315.0,,,,,,,,,,
2.17,,,,,,,,,132.603,-8.328,0.16,-5.53,0.166,69.84,59.072,,,
2.175,0.0269,3.4458,0.1426,-1.8207,-321.7087,-3.6415,32.2,99259.0,,,,,,,,,,
2.18,,,,,,,,,133.073,-8.478,0.168,-5.296,0.164,70.18,59.052,,,
2.185,0.0205,3.4434,0.127,-2.0308,-322.409,-3.6415,32.3,99300.0,,,,,,,,,,
2.19,,,,,,,,,133.54,-8.623,0.176,-5.056,0.16,70.68,58.918,,,
2.195,0.0195,3.4272,0.1274,-1.9608,-323.5994,-2.9412,32.3,99251.0,,,,,,,,,,
2.2,,,,,,,,,134.002,-8.762,0.184,-4.812,0.156,71.28,58.639,,,
2.205,0.0269,3.4229,0.1289,-2.8011,-324.7199,-2.591,32.2,99273.0,,,,,,,,,,
2.21,,,,,,,,,134.46,-8.894,0.191,-4.563,0.152,71.44,58.456,,,
2.215,0.0342,3.4077,0.1064,-2.8711,-325.3501,-2.381,32.3,99263.0,,,,,,,,,,
2.22,,,,,,,,,134.915,-9.019,0.199,-4.31,0.147,72.21,58.273,,,
2.225,0.0317,3.3901,0.1279,-3.2913,-327.381,-2.0308,32.3,99243.0,,,,,,,,,,
2.23,,,,,,,,,135.367,-9.138,0.207,-4.053,0.141,73.73,58.062,,,
2.235,0.0264,3.3809,0.1157,-3.2913,-327.6611,-1.4706,32.2,99232.0,,,,,,,,,,
2.24,,,,,,,,,135.816,-9.249,0.215,-3.791,0.135,73.98,58.014,,,
2.245,0.0273,3.3745,0.1069,-3.0112,-328.5014,-0.9104,32.3,99246.0,,,,,,,,,,
2.25,,,,,,,,,136.259,-9.354,0.222,-3.525,0.128,74.58,57.696,,,
2.255,0.022,3.3706,0.1133,-3.2913,-329.2717,-0.5602,32.3,99247.0,,,,,,,,,,
2.26,,,,,,,,,136.7,-9.451,0.229,-3.256,0.121,74.91,57.61,,,
2.265,0.021,3.354,0.1157,-2.591,-329.5518,0.2101,32.3,99230.0,,,,,,,,,,
2.27,,,,,,,,,137.135,-9.54,0.236,-2.984,0.114,75.59,57.312,,,
2.275,0.0322,3.3428,0.0962,-2.1709,-329.7619,0.4902,32.2,99229.0,,,,,,,,,,
2.28,,,,,,,,,137.565,-9.622,0.242,-2.709,0.105,75.93,56.965,,,
2.285,0.019,3.3428,0.1016,-2.1008,-330.1821,0.6303,32.3,99206.0,,,,,,,,,,
2.29,,,,,,,,,137.99,-9.696,0.247,-2.432,0.097,76.02,56.783,,,
2.295,0.0186,3.335,0.1123,-1.3305,-330.8824,1.0504,32.3,99208.0,,,,,,,,,,
2.3,,,,,,,,,138.411,-9.761,0.252,-2.152,0.088,76.27,56.658,,,
2.305,0.0156,3.3286,0.0972,-0.8403,-330.7423,1.1204,32.3,99196.0,,,,,,,,,,
2.31,,,,,,,,,138.83,-9.819,0.256,-1.87,0.079,77.2,56.581,,,
2.315,0.0156,3.3174,0.1069,-0.1401,-330.6723,0.9804,32.3,99191.0,,,,,,,,,,
2.32,,,,,,,,,139.242,-9.869,0.259,-1.586,0.071,77.37,56.254,,,
2.325,0.0073,3.3081,0.0874,0.6303,-330.6723,0.9804,32.3,99205.0,,,,,,,,,,
2.33,,,,,,,,,139.65,-9.911,0.262,-1.301,0.062,77.45,56.032,,,
2.335,0.0063,3.2939,0.1045,0.6303,-331.1625,0.9104,32.2,99147.0,,,,,,,,,,
2.34,,,,,,,,,140.057,-9.944,0.264,-1.016,0.053,79.23,56.032,,,
2.345,0.0083,3.2847,0.0972,1.6807,-330.6723,0.4202,32.3,99163.0,,,,,,,,,,
2.35,,,,,,,,,140.46,-9.969,0.265,-0.728,0.044,79.4,55.879,,,
2.355,0.0107,3.2754,0.0942,2.1709,-331.2325,-0.3501,32.3,99148.0,,,,,,,,,,
2.36,,,,,,,,,140.859,-9.986,0.266,-0.441,0.036,79.48,55.754,,,
2.365,0.0103,3.2671,0.105,2.0308,-332.2129,-0.9804,32.3,99130.0,,,,,,,,,,
2.37,,,,,,,,,141.254,-9.995,0.265,-0.153,0.028,80.25,55.532,,,
2.375,0.0112,3.2598,0.0996,2.8011,-332.563,-1.6807,32.3,99093.0,,,,,,,,,,
2.38,,,,,,,,,141.644,-9.995,0.265,0.135,0.021,80.67,55.35,,,
2.385,0.0103,3.2417,0.1128,2.521,-334.2437,-2.9412,32.3,99094.0,,,,,,,,,,
2.39,,,,,,,,,142.033,-9.987,0.264,0.425,0.015,83.04,55.071,,,
2.395,0.0024,3.2451,0.1001,3.0812,-334.7339,-3.8515,32.3,99074.0,,,,,,,,,,
2.4,,,,,,,,,142.419,-9.97,0.263,0.715,0.009,84.31,54.888,,,
2.405,0.0093,3.2329,0.1016,2.6611,-335.4342,-4.3417,32.3,99070.0,,,,,,,,,,
2.41,,,,,,,,,142.8,-9.945,0.261,1.006,0.004,84.4,54.705,,,
2.415,0.0103,3.2178,0.1152,2.521,-336.3445,-4.6919,32.3,99045.0,,,,,,,,,,
2.42,,,,,,,,,143.178,-9.912,0.259,1.296,0.0,85.84,54.542,,,
2.425,0.0039,3.2124,0.0991,2.521,-336.9748,-5.7423,32.3,99031.0,,,,,,,,,,
2.43,,,,,,,,,143.558,-9.87,0.257,1.586,-0.003,88.89,54.397,,,
2.435,0.002,3.2046,0.1069,1.6106,-338.1653,-5.7423,32.3,99026.0,,,,,,,,,,
2.44,,,,,,,,,143.932,-9.819,0.254,1.875,-0.006,88.97,54.109,,,
2.445,0.022,3.1963,0.1177,1.3305,-338.5854,-6.2325,32.3,99045.0,,,,,,,,,,
2.45,,,,,,,,,144.305,-9.759,0.252,2.163,-0.009,90.58,54.042,,,
2.455,0.0142,3.1934,0.0898,1.1204,-338.7255,-7.3529,32.2,98990.0,,,,,,,,,,
2.46,,,,,,,,,144.674,-9.691,0.25,2.45,-0.012,90.92,53.868,,,
2.465,0.0127,3.186,0.1045,0.2101,-340.5462,-7.2829,32.3,99025.0,,,,,,,,,,
2.47,,,,,,,,,145.04,-9.615,0.248,2.735,-0.013,93.04,53.57,,,
2.475,0.0234,3.1792,0.1021,-0.4202,-340.9664,-7.2829,32.2,99033.0,,,,,,,,,,
2.48,,,,,,,,,145.402,-9.529,0.247,3.019,-0.015,93.04,53.465,,,
2.485,0.0205,3.167,0.0894,-0.7703,-341.2465,-7.7731,32.3,99014.0,,,,,,,,,,
2.49,,,,,,,,,145.761,-9.435,0.245,3.301,-0.016,94.06,53.311,,,
2.495,0.0161,3.1665,0.0977,-1.3305,-341.5266,-7.493,32.3,98985.0,,,,,,,,,,
2.5,,,,,,,,,146.116,-9.333,0.244,3.58,-0.017,94.23,53.147,,,
2.505,0.0215,3.1616,0.1016,-1.3305,-341.1765,-7.1429,32.3,98991.0,,,,,,,,,,
2.51,,,,,,,,,146.467,-9.223,0.243,3.856,-0.017,94.65,53.089,,,
2.515,0.022,3.1543,0.0903,-1.4706,-340.8964,-7.0728,32.3,98964.0,,,,,,,,,,
2.52,,,,,,,,,146.813,-9.104,0.241,4.129,-0.018,94.74,52.945,,,
2.525,0.0205,3.1445,0.0923,-1.8207,-340.8964,-6.6527,32.3,99005.0,,,,,,,,,,
2.53,,,,,,,,,147.156,-8.977,0.24,4.398,-0.019,95.67,52.811,,,
2.535,0.0259,3.1338,0.0903,-1.8908,-340.6863,-6.3025,32.3,98979.0,,,,,,,,,,
2.54,,,,,,,,,147.495,-8.843,0.239,4.662,-0.021,96.44,52.57,,,
2.545,0.0298,3.1216,0.0869,-1.8207,-340.2661,-6.0924,32.3,98942.0,,,,,,,,,,
2.55,,,,,,,,,147.833,-8.7,0.238,4.923,-0.022,97.62,52.56,,,
2.555,0.0269,3.1099,0.0889,-1.6807,-339.7759,-5.7423,32.2,98941.0,,,,,,,,,,
2.56,,,,,,,,,148.166,-8.551,0.237,5.178,-0.023,97.62,52.464,,,
2.565,0.0298,3.1104,0.0835,-1.4006,-338.8655,-5.2521,32.3,98934.0,,,,,,,,,,
2.57,,,,,,,,,148.496,-8.394,0.235,5.429,-0.025,98.13,52.32,,,
2.575,0.0249,3.0981,0.082,-1.1204,-338.2353,-5.042,32.3,98940.0,,,,,,,,,,
2.58,,,,,,,,,148.821,-8.23,0.234,5.675,-0.028,98.64,52.128,,,
2.585,0.0293,3.0923,0.0801,-0.6303,-336.9048,-4.6218,32.3,98938.0,,,,,,,,,,
2.59,,,,,,,,,149.143,-8.059,0.232,5.915,-0.03,99.91,51.916,,,
2.595,0.0356,3.0894,0.0781,-0.4902,-335.6443,-4.2717,32.3,98907.0,,,,,,,,,,
2.6,,,,,,,,,149.463,-7.882,0.23,6.149,-0.033,101.78,51.676,,,
2.605,0.0352,3.0845,0.0732,0.07,-334.5238,-4.1317,32.3,98884.0,,,,,,,,,,
2.61,,,,,,,,,149.777,-7.699,0.228,6.377,-0.037,101.86,51.454,,,
2.615,0.0322,3.0786,0.0811,0.5602,-332.9832,-3.8515,32.3,98899.0,,,,,,,,,,
2.62,,,,,,,,,150.088,-7.51,0.225,6.598,-0.04,101.95,51.445,,,
2.625,0.0298,3.0762,0.0659,1.1204,-331.3025,-3.5014,32.3,98886.0,,,,,,,,,,
2.63,,,,,,,,,150.393,-7.315,0.222,6.813,-0.044,102.12,51.214,39.38984298706055,-8.289429664611816,0.0
2.635,0.0327,3.0654,0.0698,1.7507,-330.5322,-3.2913,32.3,98869.0,,,,,,,,,,
2.64,,,,,,,,,150.694,-7.116,0.218,7.022,-0.049,102.46,51.099,,,
2.645,0.0322,3.0576,0.0708,2.381,-329.1317,-3.2913,32.3,98838.0,,,,,,,,,,
2.65,,,,,,,,,150.996,-6.911,0.214,7.224,-0.054,104.75,51.041,,,
2.655,0.0288,3.0508,0.0659,2.9412,-327.7311,-3.4314,32.3,98863.0,,,,,,,,,,
2.66,,,,,,,,,151.295,-6.701,0.21,7.419,-0.059,105.43,50.945,,,
2.665,0.0298,3.0459,0.0669,3.7115,-326.1905,-3.4314,32.3,98836.0,,,,,,,,,,
2.67,,,,,,,,,151.592,-6.486,0.205,7.607,-0.065,106.53,50.829,,,
2.675,0.0322,3.0386,0.0688,4.3417,-325.07,-3.6415,32.3,98809.0,,,,,,,,,,
2.68,,,,,,,,,151.885,-6.268,0.199,7.788,-0.071,106.7,50.781,,,
2.685,0.0308,3.0283,0.0659,4.7619,-323.8796,-3.9916,32.3,98835.0,,,,,,,,,,
2.69,,,,,,,,,152.174,-6.045,0.193,7.963,-0.077,107.97,50.57,,,
2.695,0.0322,3.0156,0.062,5.1821,-322.549,-4.2717,32.3,98826.0,,,,,,,,,,
2.7,,,,,,,,,152.46,-5.818,0.186,8.13,-0.083,108.48,50.416,,,
2.705,0.0342,3.0166,0.0659,5.5322,-321.2885,-5.3221,32.3,98809.0,,,,,,,,,,
2.71,,,,,,,,,152.746,-5.587,0.179,8.29,-0.089,110.61,50.281,,,
2.715,0.0361,3.0107,0.0757,5.9524,-320.7983,-5.6022,32.3,98797.0,,,,,,,,,,
2.72,,,,,,,,,153.027,-5.353,0.17,8.443,-0.095,110.78,50.185,,,
2.725,0.0356,2.999,0.063,6.3025,-320.1681,-6.2325,32.3,98773.0,,,,,,,,,,
2.73,,,,,,,,,153.303,-5.116,0.161,8.59,-0.101,110.86,50.041,,,
2.735,0.0352,2.9873,0.0664,6.0224,-319.958,-6.7227,32.2,98767.0,,,,,,,,,,
2.74,,,,,,,,,153.575,-4.874,0.151,8.729,-0.107,111.63,49.839,,,
2.745,0.0415,2.9814,0.0659,6.1625,-319.4678,-7.1429,32.3,98770.0,,,,,,,,,,
2.75,,,,,,,,,153.845,-4.629,0.141,8.861,-0.113,113.07,49.608,,,
2.755,0.0396,2.9756,0.0679,6.0924,-318.4874,-7.7031,32.3,98775.0,,,,,,,,,,
2.76,,,,,,,,,154.11,-4.381,0.131,8.987,-0.118,113.07,49.589,,,
2.765,0.0415,2.9741,0.0698,6.2325,-317.8571,-7.9132,32.3,98733.0,,,,,,,,,,
2.77,,,,,,,,,154.374,-4.13,0.12,9.105,-0.123,114.09,49.492,,,
2.775,0.0479,2.9644,0.0684,6.3025,-317.0868,-8.2633,32.3,98726.0,,,,,,,,,,
2.78,,,,,,,,,154.635,-3.877,0.108,9.216,-0.128,115.96,49.262,,,
2.785,0.0425,2.9697,0.0693,6.1625,-316.5966,-8.7535,32.3,98743.0,,,,,,,,,,
2.79,,,,,,,,,154.891,-3.621,0.096,9.319,-0.133,116.13,49.031,,,
2.795,0.0493,2.9648,0.0698,6.0224,-315.6863,-8.6134,32.3,98698.0,,,,,,,,,,
2.8,,,,,,,,,155.143,-3.363,0.084,9.416,-0.137,116.38,48.915,,,
2.805,0.0479,2.9536,0.0688,5.6723,-315.1961,-8.6134,32.3,98694.0,,,,,,,,,,
2.81,,,,,,,,,155.39,-3.103,0.072,9.504,-0.141,116.64,48.8,,,
2.815,0.04,2.9541,0.0728,5.7423,-314.4958,-8.6835,32.3,98700.0,,,,,,,,,,
2.82,,,,,,,,,155.638,-2.841,0.06,9.586,-0.145,118.68,48.771,,,
2.825,0.0449,2.9409,0.0674,5.9524,-313.7955,-8.2633,32.3,98676.0,,,,,,,,,,
2.83,,,,,,,,,155.884,-2.577,0.048,9.66,-0.148,119.53,48.685,,,
2.835,0.0488,2.9434,0.0659,5.5322,-313.2353,-8.4034,32.3,98687.0,,,,,,,,,,
2.84,,,,,,,,,156.126,-2.313,0.036,9.727,-0.152,120.12,48.588,,,
2.845,0.0449,2.9307,0.0693,5.6723,-312.8151,-8.2633,32.3,98638.0,,,,,,,,,,
2.85,,,,,,,,,156.37,-2.047,0.024,9.786,-0.155,122.33,48.579,,,
2.855,0.0444,2.9165,0.0649,5.5322,-311.8347,-8.2633,32.3,98658.0,,,,,,,,,,
2.86,,,,,,,,,156.608,-1.779,0.012,9.839,-0.159,122.5,48.377,,,
2.865,0.0483,2.9126,0.0728,5.3221,-311.4146,-8.1232,32.3,98605.0,,,,,,,,,,
2.87,,,,,,,,,156.843,-1.512,0.0,9.883,-0.162,122.84,48.367,,,
2.875,0.0542,2.9048,0.063,5.6723,-311.0644,-8.1933,32.3,98628.0,,,,,,,,,,
2.88,,,,,,,,,157.074,-1.243,-0.011,9.92,-0.165,123.44,48.165,,,
2.885,0.0474,2.9038,0.0654,5.5322,-310.5042,-8.4034,32.3,98625.0,,,,,,,,,,
2.89,,,,,,,,,157.303,-0.974,-0.022,9.95,-0.168,124.38,48.117,,,
2.895,0.0459,2.895,0.0723,5.7423,-310.014,-7.9832,32.3,98603.0,,,,,,,,,,
2.9,,,,,,,,,157.53,-0.705,-0.034,9.973,-0.17,125.91,47.915,,,
2.905,0.0498,2.8853,0.0649,6.0224,-309.1036,-7.7731,32.3,98589.0,,,,,,,,,,
2.91,,,,,,,,,157.755,-0.435,-0.046,9.988,-0.173,127.61,47.636,,,
2.915,0.0425,2.8838,0.0664,5.6022,-308.6835,-7.9132,32.3,98575.0,,,,,,,,,,
2.92,,,,,,,,,157.977,-0.166,-0.057,9.996,-0.176,128.46,47.559,,,
2.925,0.0547,2.875,0.0693,5.7423,-307.7731,-7.493,32.3,98561.0,,,,,,,,,,
2.93,,,,,,,,,158.194,0.101,-0.069,9.997,-0.179,128.71,47.405,39.38982391357422,-8.289420127868652,12.0
2.935,0.0542,2.8672,0.0649,6.0224,-307.1429,-7.7731,32.3,98569.0,,,,,,,,,,
2.94,,,,,,,,,158.412,0.369,-0.08,9.991,-0.181,130.42,47.386,,,
2.945,0.0444,2.8643,0.0698,5.8123,-306.5126,-7.8431,32.3,98565.0,,,,,,,,,,
2.95,,,,,,,,,158.625,0.636,-0.091,9.977,-0.184,130.58,47.213,,,
2.955,0.0527,2.8623,0.0645,6.2325,-305.6723,-7.423,32.3,98536.0,,,,,,,,,,
2.96,,,,,,,,,158.835,0.902,-0.102,9.956,-0.186,131.78,47.021,,,
2.965,0.0532,2.8584,0.0669,6.3025,-305.3922,-7.7731,32.3,98509.0,,,,,,,,,,
2.97,,,,,,,,,159.044,1.167,-0.112,9.929,-0.188,132.97,46.992,,,
2.975,0.0498,2.853,0.0693,6.4426,-304.902,-7.7731,32.3,98536.0,,,,,,,,,,
2.98,,,,,,,,,159.249,1.43,-0.123,9.894,-0.191,133.48,46.819,,,
2.985,0.0557,2.8408,0.0654,6.5126,-304.3417,-7.563,32.3,98498.0,,,,,,,,,,
2.99,,,,,,,,,159.449,1.692,-0.134,9.852,-0.193,133.82,46.665,,,
2.995,0.0483,2.8379,0.0674,6.5826,-303.9216,-7.8431,32.3,98464.0,,,,,,,,,,
3.0,,,,,,,,,159.645,1.953,-0.145,9.804,-0.195,134.16,46.607,,,
3.005,0.0479,2.8306,0.0708,6.9328,-303.5714,-7.563,32.3,98490.0,,,,,,,,,,
3.01,,,,,,,,,159.844,2.212,-0.155,9.749,-0.198,136.29,46.569,,,
3.015,0.0566,2.8096,0.0688,6.7927,-302.521,-7.7731,32.3,98451.0,,,,,,,,,,
3.02,,,,,,,,,160.037,2.468,-0.165,9.686,-0.2,136.29,46.492,,,
3.025,0.0493,2.8101,0.0664,6.9328,-301.8908,-7.7731,32.3,98460.0,,,,,,,,,,
3.03,,,,,,,,,160.232,2.723,-0.175,9.618,-0.202,138.59,46.386,,,
3.035,0.0522,2.8096,0.0649,7.0028,-301.6106,-7.7031,32.3,98453.0,,,,,,,,,,
3.04,,,,,,,,,160.423,2.975,-0.185,9.543,-0.205,139.52,46.145,,,
3.045,0.0552,2.8086,0.0737,6.5826,-301.4006,-7.7731,32.3,98411.0,,,,,,,,,,
3.05,,,,,,,,,160.611,3.224,-0.195,9.461,-0.207,140.21,46.088,,,
3.055,0.0498,2.8091,0.0684,7.0028,-300.7703,-7.9832,32.3,98441.0,,,,,,,,,,
3.06,,,,,,,,,160.8,3.471,-0.205,9.373,-0.208,142.42,45.944,,,
3.065,0.0566,2.7983,0.0708,7.0728,-300.9804,-7.8431,32.3,98438.0,,,,,,,,,,
3.07,,,,,,,,,160.982,3.716,-0.215,9.279,-0.21,142.76,45.54,,,
3.075,0.0576,2.7886,0.0771,7.0728,-301.8207,-7.9832,32.3,98403.0,,,,,,,,,,
3.08,,,,,,,,,161.162,3.957,-0.224,9.178,-0.212,143.35,45.53,,,
3.085,0.0498,2.7832,0.0649,6.8627,-302.3109,-8.3333,32.3,98414.0,,,,,,,,,,
3.09,,,,,,,,,161.338,4.197,-0.234,9.07,-0.214,143.53,45.53,,,
3.095,0.063,2.7715,0.0737,6.7227,-302.591,-8.0532,32.3,98361.0,,,,,,,,,,
3.1,,,,,,,,,161.513,4.435,-0.244,8.956,-0.215,144.38,45.52,,,
3.105,0.0654,2.7681,0.0771,6.5126,-303.4314,-8.1933,32.3,98392.0,,,,,,,,,,
3.11,,,,,,,,,161.684,4.669,-0.253,8.836,-0.216,144.63,45.511,,,
3.115,0.0547,2.7695,0.0664,6.7227,-303.2213,-8.5434,32.3,98352.0,,,,,,,,,,
3.12,,,,,,,,,161.855,4.901,-0.262,8.709,-0.217,146.68,45.309,,,
3.125,0.0591,2.7622,0.0732,6.0224,-303.6415,-8.1232,32.3,98345.0,,,,,,,,,,
3.13,,,,,,,,,162.022,5.129,-0.272,8.577,-0.218,146.94,45.116,39.38982391357422,-8.289420127868652,12.0
3.135,0.0601,2.7568,0.0752,5.6723,-304.0616,-8.1933,32.3,98339.0,,,,,,,,,,
3.14,,,,,,,,,162.185,5.354,-0.281,8.438,-0.218,147.62,45.011,,,
3.145,0.0571,2.7524,0.0757,5.3922,-304.5518,-8.1232,32.3,98324.0,,,,,,,,,,
3.15,,,,,,,,,162.345,5.575,-0.29,8.293,-0.218,148.55,44.78,,,
3.155,0.0625,2.7451,0.0728,4.902,-305.042,-7.7031,32.3,98309.0,,,,,,,,,,
3.16,,,,,,,,,162.508,5.793,-0.299,8.142,-0.217,151.2,44.741,,,
3.165,0.063,2.7319,0.0762,4.5518,-305.5322,-7.6331,32.3,98313.0,,,,,,,,,,
3.17,,,,,,,,,162.669,6.008,-0.308,7.985,-0.216,151.96,44.712,,,
3.175,0.0664,2.7339,0.0801,4.6218,-305.9524,-7.493,32.3,98292.0,,,,,,,,,,
3.18,,,,,,,,,162.826,6.218,-0.317,7.822,-0.214,152.56,44.597,,,
3.185,0.0669,2.73,0.0747,4.0616,-305.8824,-7.0028,32.3,98251.0,,,,,,,,,,
3.19,,,,,,,,,162.981,6.424,-0.325,7.653,-0.212,153.07,44.491,,,
3.195,0.062,2.7227,0.0737,3.4314,-306.1625,-6.7227,32.3,98277.0,,,,,,,,,,
3.2,,,,,,,,,163.134,6.626,-0.333,7.479,-0.209,154.35,44.405,,,
3.205,0.0591,2.7144,0.0728,3.2213,-306.1625,-6.3725,32.3,98251.0,,,,,,,,,,
3.21,,,,,,,,,163.284,6.823,-0.341,7.299,-0.205,155.29,44.26,,,
3.215,0.0605,2.7148,0.0776,2.9412,-305.7423,-5.8123,32.3,98260.0,,,,,,,,,,
3.22,,,,,,,,,163.43,7.015,-0.349,7.115,-0.201,155.63,44.039,,,
3.225,0.0542,2.7168,0.0664,2.7311,-305.4622,-5.4622,32.3,98226.0,,,,,,,,,,
3.23,,,,,,,,,163.575,7.202,-0.357,6.925,-0.196,157.08,44.001,,,
3.235,0.0708,2.7173,0.0728,2.591,-302.6611,-4.8319,32.3,98208.0,,,,,,,,,,
3.24,,,,,,,,,163.72,7.383,-0.364,6.731,-0.191,158.36,43.962,,,
3.245,0.0723,2.7129,0.0967,1.7507,-302.9412,-4.5518,32.3,98192.0,,,,,,,,,,
3.25,,,,,,,,,163.864,7.558,-0.37,6.534,-0.186,159.81,43.818,,,
3.255,0.0688,2.708,0.0703,2.1709,-302.6611,-4.3417,32.3,98226.0,,,,,,,,,,
3.26,,,,,,,,,164.006,7.728,-0.377,6.332,-0.179,160.58,43.712,,,
3.265,0.0669,2.7026,0.0786,1.5406,-303.0112,-3.8515,32.3,98187.0,,,,,,,,,,
3.27,,,,,,,,,164.143,7.892,-0.382,6.126,-0.172,160.58,43.703,,,
3.275,0.0664,2.6958,0.0771,1.6807,-302.8011,-3.6415,32.3,98177.0,,,,,,,,,,
3.28,,,,,,,,,164.282,8.051,-0.388,5.915,-0.165,162.72,43.664,,,
3.285,0.0615,2.6909,0.0674,2.2409,-302.8711,-3.7115,32.3,98136.0,,,,,,,,,,
3.29,,,,,,,,,164.418,8.204,-0.394,5.701,-0.158,162.72,43.655,,,
3.295,0.061,2.6885,0.0776,1.7507,-303.7115,-3.2213,32.3,98164.0,,,,,,,,,,
3.3,,,,,,,,,164.554,8.351,-0.398,5.482,-0.15,164.25,43.626,,,
3.305,0.0625,2.6807,0.0708,2.0308,-303.2913,-3.0812,32.3,98121.0,,,,,,,,,,
3.31,,,,,,,,,164.689,8.494,-0.403,5.26,-0.142,165.62,43.529,,,
3.315,0.0581,2.6758,0.0713,1.8207,-303.1513,-3.4314,32.3,98117.0,,,,,,,,,,
3.32,,,,,,,,,164.821,8.63,-0.407,5.033,-0.134,166.04,43.424,,,
3.325,0.0596,2.6655,0.0845,1.6106,-303.5714,-3.2213,32.3,98124.0,,,,,,,,,,
3.33,,,,,,,,,164.95,8.759,-0.411,4.804,-0.126,166.9,43.289,,,
3.335,0.0562,2.6621,0.0752,1.8207,-303.9916,-3.9916,32.3,98096.0,,,,,,,,,,
3.34,,,,,,,,,165.078,8.883,-0.415,4.57,-0.118,168.01,43.193,,,
3.345,0.0591,2.6548,0.0762,2.0308,-304.0616,-3.9916,32.3,98103.0,,,,,,,,,,
3.35,,,,,,,,,165.208,9.001,-0.418,4.333,-0.11,170.4,43.145,,,
3.355,0.0557,2.6538,0.0693,2.1008,-303.9216,-4.6218,32.3,98080.0,,,,,,,,,,
3.36,,,,,,,,,165.337,9.113,-0.422,4.093,-0.102,171.42,42.991,,,
3.365,0.0547,2.6499,0.0708,1.6106,-303.9216,-4.7619,32.3,98036.0,,,,,,,,,,
3.37,,,,,,,,,165.461,9.218,-0.425,3.851,-0.095,171.68,42.895,,,
3.375,0.0645,2.6362,0.0688,1.6807,-303.9916,-4.972,32.3,98050.0,,,,,,,,,,
3.38,,,,,,,,,165.581,9.317,-0.428,3.605,-0.087,172.02,42.693,,,
3.385,0.0562,2.6343,0.0732,1.4706,-304.6919,-5.6723,32.3,98026.0,,,,,,,,,,
3.39,,,,,,,,,165.699,9.409,-0.431,3.357,-0.08,173.22,42.625,,,
3.395,0.0562,2.6362,0.0752,1.4006,-304.902,-5.6723,32.3,98024.0,,,,,,,,,,
3.4,,,,,,,,,165.815,9.495,-0.434,3.106,-0.073,173.82,42.481,,,
3.405,0.0664,2.6338,0.0703,0.9104,-305.4622,-5.8123,32.3,97987.0,,,,,,,,,,
3.41,,,,,,,,,165.931,9.574,-0.437,2.853,-0.066,175.18,42.462,,,
3.415,0.0552,2.6309,0.0713,0.4902,-306.0924,-6.4426,32.3,97978.0,,,,,,,,,,
3.42,,,,,,,,,166.049,9.646,-0.439,2.597,-0.059,177.75,42.385,,,
3.425,0.0596,2.6265,0.0708,0.4202,-306.3725,-6.3025,32.2,97971.0,,,,,,,,,,
3.43,,,,,,,,,166.165,9.712,-0.442,2.338,-0.052,178.94,42.116,,,
3.435,0.064,2.6138,0.0713,0.6303,-306.5126,-6.5126,32.3,97981.0,,,,,,,,,,
3.44,,,,,,,,,166.28,9.771,-0.445,2.078,-0.045,179.8,42.116,,,
3.445,0.0601,2.6128,0.0659,0.6303,-307.0028,-6.7227,32.3,97970.0,,,,,,,,,,
3.45,,,,,,,,,166.392,9.823,-0.448,1.817,-0.039,179.97,42.077,,,
3.455,0.063,2.6064,0.0674,0.2101,-307.563,-6.6527,32.3,97980.0,,,,,,,,,,
3.46,,,,,,,,,166.509,9.868,-0.45,1.553,-0.032,183.14,42.068,,,
3.465,0.0601,2.6011,0.0688,-0.07,-307.563,-6.7927,32.3,97957.0,,,,,,,,,,
3.47,,,,,,,,,166.623,9.906,-0.452,1.288,-0.025,183.65,42.01,,,
3.475,0.0581,2.5991,0.0649,0.0,-307.423,-6.6527,32.3,97909.0,,,,,,,,,,
3.48,,,,,,,,,166.733,9.937,-0.454,1.022,-0.019,183.73,41.923,,,
3.485,0.0679,2.5947,0.0664,-0.1401,-307.6331,-6.3725,32.3,97902.0,,,,,,,,,,
3.49,,,,,,,,,166.837,9.96,-0.455,0.755,-0.012,183.9,41.673,,,
3.495,0.0664,2.5962,0.0649,0.07,-307.3529,-6.5126,32.3,97908.0,,,,,,,,,,
3.5,,,,,,,,,166.94,9.977,-0.457,0.488,-0.005,184.5,41.654,,,
3.505,0.0581,2.5947,0.0591,0.07,-307.2129,-6.5126,32.3,97905.0,,,,,,,,,,
3.51,,,,,,,,,167.038,9.987,-0.458,0.221,0.001,184.59,41.529,,,
3.515,0.0625,2.5908,0.0586,0.1401,-307.1429,-6.2325,32.3,97863.0,,,,,,,,,,
3.52,,,,,,,,,167.135,9.989,-0.458,-0.046,0.008,185.7,41.423,,,
3.525,0.064,2.585,0.0645,0.3501,-307.2129,-6.4426,32.3,97858.0,,,,,,,,,,
3.53,,,,,,,,,167.24,9.984,-0.459,-0.313,0.015,189.81,41.385,,,
3.535,0.0615,2.5786,0.0542,1.1905,-306.7227,-6.5126,32.3,97840.0,,,,,,,,,,
3.54,,,,,,,,,167.341,9.972,-0.458,-0.581,0.022,189.89,41.327,,,
3.545,0.0659,2.5737,0.0532,0.9104,-306.4426,-6.3725,32.3,97863.0,,,,,,,,,,
3.55,,,,,,,,,167.439,9.953,-0.457,-0.847,0.029,190.15,41.298,,,
3.555,0.061,2.5669,0.0542,1.1905,-306.1625,-6.7227,32.3,97852.0,,,,,,,,,,
3.56,,,,,,,,,167.534,9.927,-0.455,-1.112,0.036,190.41,41.298,,,
3.565,0.0596,2.5635,0.0527,1.9608,-305.6723,-7.0028,32.3,97834.0,,,,,,,,,,
3.57,,,,,,,,,167.636,9.894,-0.453,-1.377,0.043,193.74,41.221,,,
3.575,0.0591,2.5518,0.0518,2.2409,-305.4622,-7.2129,32.3,97813.0,,,,,,,,,,
3.58,,,,,,,,,167.732,9.854,-0.45,-1.64,0.049,193.74,41.106,,,
3.585,0.0625,2.5415,0.0532,2.8711,-305.042,-7.493,32.3,97816.0,,,,,,,,,,
3.59,,,,,,,,,167.825,9.807,-0.446,-1.902,0.055,194.17,40.981,,,
3.595,0.0591,2.5376,0.0503,3.7115,-304.2017,-8.1232,32.3,97763.0,,,,,,,,,,
3.6,,,,,,,,,167.915,9.753,-0.442,-2.162,0.061,194.69,40.885,,,
3.605,0.0605,2.541,0.0537,3.9916,-303.2913,-8.6835,32.3,97752.0,,,,,,,,,,
3.61,,,,,,,,,168.003,9.692,-0.436,-2.42,0.067,195.72,40.75,,,
3.615,0.0581,2.5415,0.0503,4.2017,-303.1513,-8.9636,32.3,97762.0,,,,,,,,,,
3.62,,,,,,,,,168.089,9.625,-0.43,-2.675,0.072,196.23,40.683,,,
3.625,0.063,2.5371,0.0508,3.9916,-302.9412,-9.6639,32.3,97753.0,,,,,,,,,,
3.63,,,,,,,,,168.174,9.551,-0.423,-2.929,0.077,197.77,40.452,,,
3.635,0.0635,2.5366,0.0508,4.4118,-302.3109,-10.2241,32.3,97710.0,,,,,,,,,,
3.64,,,,,,,,,168.254,9.471,-0.416,-3.18,0.081,198.03,40.25,,,
3.645,0.0879,2.5571,0.0186,5.8824,-293.9076,-10.2241,32.3,97201.0,,,,,,,,,,
3.65,,,,,,,,,168.343,9.384,-0.408,-3.429,0.085,202.31,40.25,,,
3.655,0.0645,2.5479,0.0845,4.4118,-295.2381,-11.9748,32.3,96823.0,,,,,,,,,,
3.66,,,,,,,,,168.43,9.293,-0.398,-3.668,0.089,202.39,40.25,,,
3.665,0.0679,2.5459,0.0459,5.042,-295.2381,-12.1148,32.3,96556.0,,,,,,,,,,
3.67,,,,,,,,,168.515,9.196,-0.389,-3.906,0.091,203.17,40.25,,,
3.675,0.0962,2.5376,0.0581,5.042,-296.0084,-12.0448,32.3,96342.0,,,,,,,,,,
3.68,,,,,,,,,168.597,9.093,-0.379,-4.141,0.093,203.25,40.25,,,
3.685,0.0791,2.5332,0.0552,4.7619,-296.1485,-13.2353,32.3,96261.0,,,,,,,,,,
3.69,,,,,,,,,168.686,8.983,-0.369,-4.375,0.095,206.85,40.24,,,
3.695,0.0688,2.5229,0.0586,4.1317,-295.4482,-13.0252,32.3,96159.0,,,,,,,,,,
3.7,,,,,,,,,168.905,8.868,-0.359,-4.605,0.096,250.57,40.24,,,
3.705,0.0835,2.5142,0.0493,4.0616,-296.3585,-12.7451,32.3,96075.0,,,,,,,,,,
3.71,,,,,,,,,169.218,8.747,-0.348,-4.832,0.096,283.17,40.173,,,
3.715,0.0781,2.5142,0.0522,4.2717,-297.6891,-13.0952,32.3,96030.0,,,,,,,,,,
3.72,,,,,,,,,169.597,8.619,-0.338,-5.057,0.097,306.25,40.163,,,
3.725,0.0791,2.5171,0.0542,4.5518,-296.9888,-12.395,32.3,95963.0,,,,,,,,,,
3.73,,,,,,,,,170.026,8.485,-0.327,-5.279,0.098,324.79,40.154,,,
3.735,0.0864,2.5156,0.0483,3.1513,-296.2185,-11.9048,32.3,95911.0,,,,,,,,,,
3.74,,,,,,,,,170.471,8.346,-0.316,-5.497,0.099,331.81,40.086,,,
3.745,0.0869,2.5156,0.0571,2.6611,-296.5686,-11.9048,32.3,95888.0,,,,,,,,,,
3.75,,,,,,,,,170.936,8.202,-0.306,-5.711,0.1,340.67,39.884,,,
3.755,0.0933,2.5039,0.0488,3.2213,-297.479,-10.9944,32.3,95860.0,,,,,,,,,,
3.76,,,,,,,,,171.416,8.052,-0.297,-5.921,0.1,347.97,39.769,,,
3.765,0.0962,2.5083,0.0537,2.521,-296.7087,-10.5042,32.3,95806.0,,,,,,,,,,
3.77,,,,,,,,,171.903,7.896,-0.287,-6.128,0.102,351.88,39.74,,,
3.775,0.0952,2.5093,0.0571,2.0308,-296.2185,-10.014,32.3,95799.0,,,,,,,,,,
3.78,,,,,,,,,172.401,7.735,-0.277,-6.33,0.103,357.7,39.74,,,
3.785,0.0957,2.4995,0.0483,2.521,-296.2885,-9.2437,32.3,95763.0,,,,,,,,,,
3.79,,,,,,,,,172.907,7.569,-0.268,-6.528,0.104,362.23,39.711,,,
3.795,0.0918,2.5,0.0508,2.1008,-296.8487,-8.6134,32.3,95719.0,,,,,,,,,,
3.8,,,,,,,,,173.413,7.398,-0.259,-6.721,0.106,364.23,39.711,,,
3.805,0.0928,2.4976,0.0483,2.591,-296.0084,-7.7031,32.3,95698.0,,,,,,,,,,
3.81,,,,,,,,,173.919,7.222,-0.251,-6.91,0.109,366.67,39.615,,,
3.815,0.0947,2.4902,0.0454,2.9412,-295.3081,-7.0028,32.3,95680.0,,,,,,,,,,
3.82,,,,,,,,,174.434,7.042,-0.242,-7.094,0.111,371.37,39.596,,,
3.825,0.0903,2.4824,0.0488,3.4314,-295.3782,-6.4426,32.3,95684.0,,,,,,,,,,
3.83,,,,,,,,,174.944,6.857,-0.234,-7.273,0.115,371.98,39.509,39.38982391357422,-8.289420127868652,0.0
3.835,0.0947,2.4761,0.0435,3.9916,-294.1877,-5.6723,32.3,95652.0,,,,,,,,,,
3.84,,,,,,,,,175.457,6.668,-0.226,-7.447,0.119,375.11,39.432,,,
3.845,0.0938,2.4722,0.0454,4.0616,-294.6779,-5.2521,32.3,95623.0,,,,,,,,,,
3.85,,,,,,,,,175.975,6.475,-0.217,-7.615,0.124,378.95,39.423,,,
3.855,0.0889,2.4697,0.0464,4.972,-294.0476,-4.972,32.3,95615.0,,,,,,,,,,
3.86,,,,,,,,,176.492,6.278,-0.209,-7.779,0.129,380.78,39.384,,,
3.865,0.0947,2.4668,0.0483,5.6022,-294.3277,-4.4818,32.3,95603.0,,,,,,,,,,
3.87,,,,,,,,,177.006,6.077,-0.2,-7.937,0.134,382.0,39.24,,,
3.875,0.0903,2.4629,0.0444,4.7619,-292.9972,-4.6218,32.3,95561.0,,,,,,,,,,
3.88,,,,,,,,,177.513,5.871,-0.191,-8.091,0.14,382.35,39.086,,,
3.885,0.082,2.4551,0.0464,5.3922,-292.3669,-4.3417,32.3,95568.0,,,,,,,,,,
3.89,,,,,,,,,178.019,5.663,-0.182,-8.238,0.146,384.79,38.961,,,
3.895,0.0869,2.4473,0.0479,5.5322,-293.0672,-3.9216,32.3,95532.0,,,,,,,,,,
3.9,,,,,,,,,178.527,5.452,-0.174,-8.379,0.152,387.32,38.884,,,
3.905,0.0854,2.4414,0.04,5.3922,-292.8571,-4.2717,32.3,95483.0,,,,,,,,,,
3.91,,,,,,,,,179.03,5.236,-0.165,-8.516,0.158,388.02,38.836,,,
3.915,0.0825,2.4419,0.0444,6.0924,-293.2073,-4.2017,32.3,95505.0,,,,,,,,,,
3.92,,,,,,,,,179.53,5.018,-0.156,-8.646,0.164,389.06,38.778,,,
3.925,0.084,2.4351,0.0435,7.3529,-293.5574,-4.2017,32.3,95448.0,,,,,,,,,,
3.93,,,,,,,,,180.032,4.795,-0.146,-8.772,0.17,392.12,38.701,,,
3.935,0.0757,2.4414,0.043,5.1821,-293.5574,-4.7619,32.3,95425.0,,,,,,,,,,
3.94,,,,,,,,,180.527,4.57,-0.136,-8.891,0.177,392.73,38.548,,,
3.945,0.0801,2.4546,0.0527,4.6919,-293.4174,-4.8319,32.3,95405.0,,,,,,,,,,
3.95,,,,,,,,,181.023,4.341,-0.126,-9.005,0.182,395.26,38.394,,,
3.955,0.0811,2.4395,0.0425,5.6022,-293.5574,-5.2521,32.3,95373.0,,,,,,,,,,
3.96,,,,,,,,,181.52,4.11,-0.117,-9.113,0.186,397.62,38.394,,,
3.965,0.0786,2.4238,0.0557,4.1317,-294.6078,-5.8824,32.3,95361.0,,,,,,,,,,
3.97,,,,,,,,,182.016,3.875,-0.106,-9.215,0.191,399.54,38.288,,,
3.975,0.0767,2.4131,0.0449,3.6415,-295.6583,-6.3025,32.3,95324.0,,,,,,,,,,
3.98,,,,,,,,,182.514,3.638,-0.096,-9.312,0.195,402.6,38.278,,,
3.985,0.0732,2.4146,0.0483,1.9608,-296.4286,-6.6527,32.3,95343.0,,,,,,,,,,
3.99,,,,,,,,,183.012,3.397,-0.085,-9.402,0.198,404.61,38.278,,,
3.995,0.0801,2.4121,0.0537,1.4006,-297.2689,-6.7927,32.3,95276.0,,,,,,,,,,
4.0,,,,,,,,,183.509,3.153,-0.074,-9.487,0.199,406.35,38.24,,,
4.005,0.0767,2.4058,0.0454,1.4706,-297.409,-7.3529,32.3,95275.0,,,,,,,,,,
4.01,,,,,,,,,184.007,2.907,-0.064,-9.565,0.199,409.15,38.153,,,
4.015,0.0771,2.3999,0.0542,0.6303,-298.1092,-7.3529,32.3,95271.0,,,,,,,,,,
4.02,,,,,,,,,184.5,2.658,-0.052,-9.637,0.2,410.2,37.932,,,
4.025,0.0811,2.395,0.0508,0.9104,-298.8796,-7.2829,32.3,95220.0,,,,,,,,,,
4.03,,,,,,,,,184.99,2.407,-0.041,-9.703,0.199,411.77,37.749,,,
4.035,0.0786,2.3901,0.0479,-0.5602,-298.5294,-7.6331,32.3,95222.0,,,,,,,,,,
4.04,,,,,,,,,185.477,2.154,-0.03,-9.763,0.199,413.43,37.72,,,
4.045,0.0791,2.3867,0.04,-1.4706,-298.3193,-7.423,32.3,95161.0,,,,,,,,,,
4.05,,,,,,,,,185.971,1.9,-0.019,-9.815,0.197,417.63,37.701,,,
4.055,0.0796,2.3828,0.0444,-1.4706,-298.5294,-7.423,32.3,95181.0,,,,,,,,,,
4.06,,,,,,,,,186.458,1.644,-0.008,-9.861,0.194,417.72,37.576,,,
4.065,0.0757,2.3799,0.0381,-0.6303,-299.1597,-7.2829,32.3,95142.0,,,,,,,,,,
4.07,,,,,,,,,186.938,1.387,0.002,-9.901,0.192,418.07,37.461,,,
4.075,0.0781,2.3765,0.0435,-1.6807,-297.7591,-7.1429,32.3,95127.0,,,,,,,,,,
4.08,,,,,,,,,187.423,1.129,0.012,-9.934,0.189,422.36,37.365,,,
4.085,0.0742,2.3721,0.0386,-1.5406,-296.7787,-7.0028,32.3,95092.0,,,,,,,,,,
4.09,,,,,,,,,187.902,0.871,0.023,-9.96,0.186,422.53,37.268,,,
4.095,0.0742,2.3687,0.0303,-1.1905,-294.6078,-6.7227,32.3,95109.0,,,,,,,,,,
4.1,,,,,,,,,188.384,0.614,0.033,-9.979,0.183,425.95,37.201,,,
4.105,0.084,2.3682,0.0366,-0.7703,-293.6975,-6.6527,32.3,95053.0,,,,,,,,,,
4.11,,,,,,,,,188.864,0.358,0.044,-9.991,0.18,427.7,37.124,,,
4.115,0.0815,2.3623,0.0293,-0.6303,-292.7171,-6.7227,32.3,95050.0,,,,,,,,,,
4.12,,,,,,,,,189.342,0.102,0.054,-9.997,0.177,429.36,37.066,,,
4.125,0.0737,2.3652,0.0273,0.0,-290.8964,-6.8627,32.3,95039.0,,,,,,,,,,
4.13,,,,,,,,,189.817,-0.152,0.064,-9.997,0.174,430.68,36.999,,,
4.135,0.0781,2.376,0.0312,0.7703,-289.8459,-6.5826,32.3,95019.0,,,,,,,,,,
4.14,,,,,,,,,190.29,-0.405,0.074,-9.99,0.172,432.26,36.913,,,
4.145,0.0854,2.355,0.0244,1.5406,-287.7451,-7.0028,32.3,94995.0,,,,,,,,,,
4.15,,,,,,,,,190.76,-0.657,0.083,-9.976,0.17,433.74,36.913,,,
4.155,0.0786,2.3452,0.0269,1.8207,-286.4846,-7.2829,32.3,94955.0,,,,,,,,,,
4.16,,,,,,,,,191.234,-0.906,0.094,-9.956,0.169,437.16,36.845,,,
4.165,0.0845,2.3384,0.0234,2.1008,-284.4538,-7.2129,32.3,94946.0,,,,,,,,,,
4.17,,,,,,,,,191.701,-1.154,0.104,-9.931,0.168,437.43,36.836,,,
4.175,0.0815,2.3379,0.0244,1.9608,-283.7535,-7.7031,32.3,94922.0,,,,,,,,,,
4.18,,,,,,,,,192.164,-1.4,0.114,-9.899,0.167,438.39,36.778,,,
4.185,0.0781,2.3413,0.0215,2.6611,-282.3529,-7.9832,32.3,94901.0,,,,,,,,,,
4.19,,,,,,,,,192.626,-1.644,0.124,-9.861,0.166,440.14,36.72,,,
4.195,0.084,2.3384,0.0205,3.7115,-281.2325,-7.9132,32.3,94895.0,,,,,,,,,,
4.2,,,,,,,,,193.086,-1.886,0.134,-9.818,0.166,442.25,36.576,,,
4.205,0.0898,2.3267,0.0244,2.9412,-279.3417,-8.4034,32.3,94844.0,,,,,,,,,,
4.21,,,,,,,,,193.548,-2.125,0.144,-9.768,0.166,445.76,36.384,,,
4.215,0.085,2.3286,0.0249,3.0112,-278.0112,-8.6835,32.3,94849.0,,,,,,,,,,
4.22,,,,,,,,,194.006,-2.362,0.155,-9.714,0.166,446.55,36.307,,,
4.225,0.0854,2.3228,0.0195,4.1317,-278.1513,-8.4734,32.3,94805.0,,,,,,,,,,
4.23,,,,,,,,,194.462,-2.597,0.165,-9.653,0.166,448.65,36.249,,,
4.235,0.0845,2.3242,0.0244,4.8319,-276.9608,-8.6134,32.3,94777.0,,,,,,,,,,
4.24,,,,,,,,,194.918,-2.83,0.176,-9.588,0.166,450.5,36.249,,,
4.245,0.0815,2.3228,0.02,4.3417,-275.07,-8.7535,32.3,94795.0,,,,,,,,,,
4.25,,,,,,,,,195.368,-3.06,0.185,-9.516,0.167,451.02,36.239,,,
4.255,0.0933,2.312,0.02,4.6218,-273.9496,-8.4034,32.3,94744.0,,,,,,,,,,
4.26,,,,,,,,,195.822,-3.287,0.195,-9.44,0.168,455.06,36.057,,,
4.265,0.0859,2.3091,0.0317,4.972,-272.549,-8.6835,32.3,94716.0,,,,,,,,,,
4.27,,,,,,,,,196.271,-3.511,0.205,-9.359,0.169,455.5,36.018,,,
4.275,0.0962,2.3115,0.019,5.042,-271.2185,-8.4034,32.3,94712.0,,,,,,,,,,
4.28,,,,,,,,,196.723,-3.732,0.214,-9.273,0.17,458.92,35.97,,,
4.285,0.0874,2.3267,0.0278,4.6919,-270.2381,-8.6134,32.3,94703.0,,,,,,,,,,
4.29,,,,,,,,,197.171,-3.95,0.224,-9.182,0.171,459.8,35.941,,,
4.295,0.0903,2.3188,0.0171,5.3922,-269.1877,-8.1232,32.3,94677.0,,,,,,,,,,
4.3,,,,,,,,,197.616,-4.165,0.233,-9.086,0.171,461.38,35.941,,,
4.305,0.0923,2.2871,0.0234,4.972,-268.2073,-8.0532,32.3,94668.0,,,,,,,,,,
4.31,,,,,,,,,198.064,-4.377,0.241,-8.986,0.172,464.28,35.941,,,
4.315,0.0938,2.2788,0.0283,3.8515,-266.3866,-7.8431,32.3,94634.0,,,,,,,,,,
4.32,,,,,,,,,198.512,-4.585,0.25,-8.881,0.173,466.75,35.864,,,
4.325,0.0957,2.2812,0.019,4.1317,-265.1261,-7.563,32.3,94627.0,,,,,,,,,,
4.33,,,,,,,,,198.953,-4.79,0.258,-8.772,0.172,467.1,35.73,39.38941192626953,-8.289182662963867,0.0
4.335,0.0879,2.2832,0.0308,3.0112,-264.7059,-7.423,32.3,94574.0,,,,,,,,,,
4.34,,,,,,,,,199.39,-4.991,0.266,-8.659,0.172,467.89,35.72,,,
4.345,0.0962,2.2759,0.0244,3.1513,-262.465,-6.9328,32.3,94563.0,,,,,,,,,,
4.35,,,,,,,,,199.826,-5.189,0.275,-8.541,0.17,470.17,35.672,,,
4.355,0.0991,2.2627,0.0205,3.3613,-261.8347,-6.7927,32.3,94531.0,,,,,,,,,,
4.36,,,,,,,,,200.254,-5.383,0.282,-8.42,0.169,470.97,35.239,,,
4.365,0.0933,2.2661,0.0254,4.4818,-261.4146,-6.7227,32.3,94523.0,,,,,,,,,,
4.37,,,,,,,,,200.683,-5.574,0.29,-8.295,0.167,473.96,35.162,,,
4.375,0.0981,2.2676,0.0176,4.2017,-260.5042,-6.2325,32.3,94482.0,,,,,,,,,,
4.38,,,,,,,,,201.107,-5.761,0.296,-8.166,0.166,474.57,35.124,,,
4.385,0.1006,2.2646,0.0112,3.2913,-258.5434,-6.2325,32.3,94454.0,,,,,,,,,,
4.39,,,,,,,,,201.539,-5.945,0.302,-8.033,0.165,479.24,35.076,,,
4.395,0.0952,2.2739,0.0264,3.2213,-257.9832,-6.2325,32.3,94454.0,,,,,,,,,,
4.4,,,,,,,,,201.966,-6.124,0.309,-7.897,0.163,480.2,35.018,,,
4.405,0.0957,2.2749,0.0142,3.9216,-257.1429,-5.9524,32.3,94407.0,,,,,,,,,,
4.41,,,,,,,,,202.394,-6.3,0.315,-7.757,0.161,483.02,34.979,,,
4.415,0.1021,2.2739,0.021,2.8011,-255.112,-5.9524,32.3,94384.0,,,,,,,,,,
4.42,,,,,,,,,202.818,-6.472,0.321,-7.614,0.159,483.73,34.979,,,
4.425,0.0996,2.2593,0.0239,3.0812,-255.1821,-5.7423,32.3,94392.0,,,,,,,,,,
4.43,,,,,,,,,203.246,-6.64,0.327,-7.468,0.156,487.34,34.979,39.38941192626953,-8.289182662963867,12.0
4.435,0.0962,2.2485,0.0132,4.0616,-255.042,-5.6022,32.3,94353.0,,,,,,,,,,
4.44,,,,,,,,,203.673,-6.804,0.333,-7.318,0.153,489.8,34.854,,,
4.445,0.0938,2.2485,0.0283,4.0616,-255.3922,-5.4622,32.3,94344.0,,,,,,,,,,
4.45,,,,,,,,,204.093,-6.965,0.337,-7.165,0.151,489.8,34.826,,,
4.455,0.0938,2.2417,0.0195,4.8319,-255.2521,-5.4622,32.3,94316.0,,,,,,,,,,
4.46,,,,,,,,,204.52,-7.122,0.342,-7.008,0.149,493.95,34.826,,,
4.465,0.0947,2.2324,0.02,3.8515,-253.8515,-5.4622,32.3,94304.0,,,,,,,,,,
4.47,,,,,,,,,204.943,-7.276,0.346,-6.848,0.147,495.27,34.797,,,
4.475,0.0933,2.2241,0.0278,3.8515,-253.5714,-5.5322,32.3,94260.0,,,,,,,,,,
4.48,,,,,,,,,205.36,-7.426,0.35,-6.686,0.144,495.97,34.691,,,
4.485,0.0981,2.229,0.0161,4.1317,-253.2213,-5.8824,32.3,94264.0,,,,,,,,,,
4.49,,,,,,,,,205.777,-7.572,0.354,-6.52,0.141,498.7,34.479,,,
4.495,0.0957,2.2354,0.0278,2.6611,-253.8515,-6.0224,32.3,94228.0,,,,,,,,,,
4.5,,,,,,,,,206.189,-7.714,0.358,-6.351,0.139,499.5,34.479,,,
4.505,0.0913,2.2373,0.0249,2.1709,-253.0112,-6.2325,32.3,94210.0,,,,,,,,,,
4.51,,,,,,,,,206.601,-7.852,0.363,-6.179,0.136,501.97,34.345,,,
4.515,0.0874,2.2363,0.019,2.7311,-251.8908,-6.4426,32.3,94175.0,,,,,,,,,,
4.52,,,,,,,,,207.008,-7.986,0.368,-6.004,0.133,503.03,34.258,,,
4.525,0.0918,2.2339,0.0239,3.0112,-252.9412,-6.1625,32.3,94154.0,,,,,,,,,,
4.53,,,,,,,,,207.419,-8.116,0.373,-5.827,0.13,506.56,34.239,39.38935470581055,-8.289149284362793,12.0
4.535,0.0952,2.2251,0.0269,2.0308,-252.8011,-6.5126,32.3,94132.0,,,,,,,,,,
4.54,,,,,,,,,207.824,-8.243,0.377,-5.647,0.127,506.91,34.22,,,
4.545,0.0918,2.2153,0.0171,2.3109,-251.8207,-6.6527,32.3,94099.0,,,,,,,,,,
4.55,,,,,,,,,208.231,-8.365,0.382,-5.464,0.123,509.73,34.191,,,
4.555,0.1001,2.1997,0.0229,1.5406,-251.0504,-6.7227,32.3,94091.0,,,,,,,,,,
4.56,,,,,,,,,208.635,-8.483,0.387,-5.279,0.12,511.32,34.162,,,
4.565,0.0913,2.1943,0.0229,1.1905,-251.0504,-7.2829,32.3,94067.0,,,,,,,,,,
4.57,,,,,,,,,209.041,-8.596,0.392,-5.092,0.117,514.41,34.095,,,
4.575,0.0981,2.1958,0.021,0.4902,-251.5406,-7.2829,32.3,94043.0,,,,,,,,,,
4.58,,,,,,,,,209.446,-8.705,0.397,-4.903,0.114,516.27,34.095,,,
4.585,0.1011,2.1904,0.021,0.1401,-251.4706,-7.423,32.3,94037.0,,,,,,,,,,
4.59,,,,,,,,,209.849,-8.81,0.402,-4.711,0.11,518.21,34.018,,,
4.595,0.0981,2.1982,0.0122,0.7703,-250.6303,-7.7031,32.3,94019.0,,,,,,,,,,
4.6,,,,,,,,,210.252,-8.911,0.408,-4.516,0.106,521.13,33.825,,,
4.605,0.0996,2.1938,0.019,0.7703,-249.93,-7.7031,32.3,93999.0,,,,,,,,,,
4.61,,,,,,,,,210.647,-9.008,0.413,-4.321,0.103,521.84,33.517,,,
4.615,0.0972,2.1855,0.0132,1.2605,-250.2101,-7.8431,32.3,93942.0,,,,,,,,,,
4.62,,,,,,,,,211.042,-9.099,0.418,-4.123,0.1,523.96,33.489,,,
4.625,0.1001,2.1885,0.0098,0.4202,-249.6499,-7.563,32.3,93929.0,,,,,,,,,,
4.63,,,,,,,,,211.436,-9.187,0.423,-3.924,0.097,526.08,33.441,,,
4.635,0.1089,2.1807,0.0132,-0.4202,-249.0196,-7.423,32.3,93868.0,,,,,,,,,,
4.64,,,,,,,,,211.824,-9.27,0.428,-3.723,0.093,526.61,33.412,,,
4.645,0.0972,2.1841,0.0088,0.1401,-248.1793,-7.6331,32.3,93872.0,,,,,,,,,,
4.65,,,,,,,,,212.209,-9.348,0.433,-3.521,0.089,528.2,33.402,,,
4.655,0.105,2.1821,0.0078,0.3501,-248.3193,-7.1429,32.3,93864.0,,,,,,,,,,
4.66,,,,,,,,,212.593,-9.422,0.437,-3.318,0.086,529.97,33.335,,,
4.665,0.1074,2.1763,0.0127,0.9804,-247.8992,-7.0028,32.3,93864.0,,,,,,,,,,
4.67,,,,,,,,,212.985,-9.492,0.442,-3.113,0.082,535.01,33.296,,,
4.675,0.0986,2.1719,0.0156,2.1709,-247.7591,-7.0728,32.3,93833.0,,,,,,,,,,
4.68,,,,,,,,,213.373,-9.557,0.445,-2.907,0.078,536.16,33.239,,,
4.685,0.1064,2.1665,0.0039,2.591,-247.1989,-6.6527,32.3,93775.0,,,,,,,,,,
4.69,,,,,,,,,213.769,-9.617,0.447,-2.7,0.074,541.21,33.21,,,
4.695,0.1001,2.1597,0.0098,1.4006,-246.0784,-7.0028,32.3,93794.0,,,,,,,,,,
4.7,,,,,,,,,214.158,-9.673,0.449,-2.492,0.07,541.56,33.171,,,
4.705,0.1055,2.1582,0.0024,1.9608,-245.1681,-6.7227,32.3,93764.0,,,,,,,,,,
4.71,,,,,,,,,214.542,-9.724,0.451,-2.284,0.066,541.92,33.142,,,
4.715,0.1045,2.1587,0.0063,1.9608,-242.9972,-6.8627,32.3,93754.0,,,,,,,,,,
4.72,,,,,,,,,214.917,-9.771,0.453,-2.076,0.062,541.92,33.056,,,
4.725,0.0991,2.1602,0.0098,2.9412,-242.8571,-6.7927,32.3,93700.0,,,,,,,,,,
4.73,,,,,,,,,215.293,-9.813,0.454,-1.869,0.058,544.66,32.969,,,
4.735,0.1079,2.1558,0.0029,2.451,-240.8964,-6.7227,32.3,93715.0,,,,,,,,,,
4.74,,,,,,,,,215.672,-9.85,0.454,-1.66,0.054,548.12,32.864,,,
4.745,0.1016,2.1514,0.0142,2.0308,-240.8964,-6.7227,32.3,93674.0,,,,,,,,,,
4.75,,,,,,,,,216.048,-9.883,0.455,-1.453,0.051,549.8,32.738,,,
4.755,0.106,2.1465,0.0044,3.7115,-239.986,-6.5126,32.3,93636.0,,,,,,,,,,
4.76,,,,,,,,,216.419,-9.911,0.456,-1.245,0.047,550.78,32.729,,,
4.765,0.1035,2.145,0.002,4.4818,-238.7255,-6.5826,32.3,93586.0,,,,,,,,,,
4.77,,,,,,,,,216.786,-9.935,0.455,-1.038,0.043,551.66,32.71,,,
4.775,0.1069,2.1426,0.0156,4.4818,-237.3249,-6.5126,32.3,93612.0,,,,,,,,,,
4.78,,,,,,,,,217.157,-9.954,0.453,-0.831,0.039,555.12,32.7,,,
4.785,0.104,2.1362,0.0063,4.2717,-236.8347,-6.5126,32.3,93592.0,,,,,,,,,,
4.79,,,,,,,,,217.524,-9.97,0.451,-0.625,0.035,556.45,32.652,,,
4.795,0.103,2.1401,0.0103,3.4314,-235.7143,-6.5826,32.3,93529.0,,,,,,,,,,
4.8,,,,,,,,,217.89,-9.981,0.449,-0.419,0.032,558.76,32.565,,,
4.805,0.1069,2.1401,0.021,3.5014,-235.014,-6.2325,32.3,93544.0,,,,,,,,,,
4.81,,,,,,,,,218.259,-9.987,0.447,-0.214,0.028,562.13,32.469,,,
4.815,0.1079,2.1553,0.0068,2.8011,-234.3137,-6.2325,32.3,93492.0,,,,,,,,,,
4.82,,,,,,,,,218.626,-9.99,0.446,-0.009,0.024,564.26,32.44,,,
4.825,0.1035,2.1587,0.0146,2.521,-234.2437,-6.3025,32.3,93480.0,,,,,,,,,,
4.83,,,,,,,,,218.993,-9.988,0.444,0.194,0.02,566.03,32.44,,,
4.835,0.1055,2.1299,0.0151,2.451,-234.1737,-5.8123,32.3,93445.0,,,,,,,,,,
4.84,,,,,,,,,219.353,-9.982,0.443,0.398,0.016,566.56,32.44,,,
4.845,0.1074,2.1108,0.0049,2.8011,-234.1036,-5.8123,32.3,93406.0,,,,,,,,,,
4.85,,,,,,,,,219.718,-9.972,0.442,0.602,0.012,570.3,32.392,,,
4.855,0.1001,2.1055,0.0112,0.9104,-233.3333,-5.9524,32.3,93408.0,,,,,,,,,,
4.86,,,,,,,,,220.079,-9.957,0.44,0.805,0.007,571.63,32.344,,,
4.865,0.1074,2.0981,0.0093,1.6807,-233.5434,-5.6022,32.3,93375.0,,,,,,,,,,
4.87,,,,,,,,,220.444,-9.939,0.439,1.007,0.003,574.91,32.344,,,
4.875,0.1025,2.0952,0.0054,1.6106,-233.1232,-5.5322,32.3,93330.0,,,,,,,,,,
4.88,,,,,,,,,220.803,-9.916,0.438,1.209,0.0,575.98,32.267,,,
4.885,0.1069,2.0952,0.0156,-0.1401,-231.5126,-5.4622,32.3,93318.0,,,,,,,,,,
4.89,,,,,,,,,221.164,-9.89,0.437,1.41,-0.005,579.09,32.142,,,
4.895,0.1079,2.0869,0.001,0.9104,-231.9328,-5.2521,32.3,93321.0,,,,,,,,,,
4.9,,,,,,,,,221.524,-9.859,0.437,1.61,-0.009,582.38,31.767,,,
4.905,0.1016,2.0854,0.0063,0.9104,-232.1429,-5.3922,32.3,93271.0,,,,,,,,,,
4.91,,,,,,,,,221.877,-9.825,0.436,1.809,-0.014,582.56,31.661,,,
4.915,0.1074,2.0874,-0.0083,-0.5602,-228.7815,-5.1821,32.3,93253.0,,,,,,,,,,
4.92,,,,,,,,,222.229,-9.786,0.435,2.007,-0.018,585.31,31.517,,,
4.925,0.1064,2.0864,0.0103,-0.6303,-228.3613,-5.3221,32.3,93265.0,,,,,,,,,,
4.93,,,,,,,,,222.586,-9.744,0.435,2.202,-0.022,589.32,31.459,39.389217376708984,-8.28908920288086,12.0
4.935,0.1025,2.0806,-0.0132,1.1905,-226.6106,-5.3922,32.3,93240.0,,,,,,,,,,
4.94,,,,,,,,,222.938,-9.699,0.434,2.395,-0.027,590.12,31.459,,,
4.945,0.1025,2.0747,-0.0063,0.5602,-226.1204,-5.2521,32.3,93183.0,,,,,,,,,,
4.95,,,,,,,,,223.283,-9.649,0.432,2.586,-0.031,590.38,31.305,,,
4.955,0.1025,2.0664,0.0029,0.07,-224.2997,-5.5322,32.3,93155.0,,,,,,,,,,
4.96,,,,,,,,,223.633,-9.597,0.431,2.776,-0.035,594.57,31.296,,,
4.965,0.1094,2.0591,-0.021,0.6303,-221.9188,-5.6723,32.3,93147.0,,,,,,,,,,
4.97,,,,,,,,,223.977,-9.541,0.429,2.963,-0.039,595.1,31.286,,,
4.975,0.1025,2.0537,-0.0049,0.5602,-221.6387,-5.8123,32.3,93100.0,,,,,,,,,,
4.98,,,,,,,,,224.318,-9.482,0.427,3.147,-0.043,596.17,31.267,,,
4.985,0.1006,2.0459,-0.0044,1.1204,-218.9076,-6.0924,32.3,93111.0,,,,,,,,,,
4.99,,,,,,,,,224.653,-9.419,0.425,3.329,-0.047,597.32,31.171,,,
4.995,0.103,2.0371,-0.0156,1.6106,-217.2969,-6.0224,32.3,93087.0,,,,,,,,,,
5.0,,,,,,,,,224.996,-9.354,0.422,3.508,-0.05,602.4,31.055,,,
5.005,0.1025,2.0376,-0.0059,1.9608,-216.4566,-6.3025,32.3,93063.0,,,,,,,,,,
5.01,,,,,,,,,225.338,-9.286,0.419,3.685,-0.054,604.9,30.892,,,
5.015,0.1045,2.042,-0.0117,3.2213,-215.1261,-6.6527,32.3,93034.0,,,,,,,,,,
5.02,,,,,,,,,225.674,-9.215,0.415,3.859,-0.057,605.61,30.748,,,
5.025,0.1006,2.0483,-0.0176,3.2213,-214.2857,-6.9328,32.3,93006.0,,,,,,,,,,
5.03,,,,,,,,,226.011,-9.141,0.41,4.031,-0.061,608.82,30.642,,,
5.035,0.0986,2.0503,-0.0054,3.5014,-214.2857,-7.0728,32.3,92994.0,,,,,,,,,,
5.04,,,,,,,,,226.343,-9.065,0.404,4.201,-0.064,609.8,30.536,,,
5.045,0.1064,2.0508,-0.0127,3.9216,-211.6246,-7.3529,32.3,92941.0,,,,,,,,,,
5.05,,,,,,,,,226.671,-8.985,0.398,4.37,-0.067,610.96,30.536,,,
5.055,0.105,2.0605,-0.0088,4.3417,-210.9944,-7.7031,32.3,92928.0,,,,,,,,,,
5.06,,,,,,,,,226.999,-8.903,0.392,4.535,-0.07,613.1,30.536,,,
5.065,0.1069,2.0571,-0.0098,3.3613,-209.8039,-7.9132,32.3,92883.0,,,,,,,,,,
5.07,,,,,,,,,227.328,-8.818,0.385,4.698,-0.073,615.68,30.536,,,
5.075,0.105,2.0547,-0.0161,3.7815,-208.5434,-8.1232,32.3,92865.0,,,,,,,,,,
5.08,,,,,,,,,227.657,-8.731,0.378,4.858,-0.075,618.18,30.536,,,
5.085,0.1104,2.0464,-0.0117,4.2017,-208.6835,-8.1232,32.3,92835.0,,,,,,,,,,
5.09,,,,,,,,,227.982,-8.642,0.371,5.016,-0.077,619.25,30.575,,,
5.095,0.1118,2.0317,-0.019,2.381,-205.6723,-8.3333,32.3,92823.0,,,,,,,,,,
5.1,,,,,,,,,228.315,-8.549,0.364,5.173,-0.08,623.98,30.575,,,
5.105,0.1084,2.0142,-0.0186,2.8711,-204.7619,-8.1232,32.3,92781.0,,,,,,,,,,
5.11,,,,,,,,,228.644,-8.455,0.358,5.325,-0.081,625.14,30.575,,,
5.115,0.1113,1.9878,-0.0132,3.0112,-203.0812,-7.7031,32.3,92801.0,,,,,,,,,,
5.12,,,,,,,,,228.979,-8.359,0.351,5.475,-0.083,629.16,30.575,,,
5.125,0.1069,1.958,-0.0161,4.6218,-201.3305,-7.7031,32.3,92748.0,,,,,,,,,,
5.13,,,,,,,,,229.311,-8.261,0.344,5.622,-0.084,630.77,30.575,39.389217376708984,-8.28908920288086,12.0
5.135,0.1089,1.9312,-0.0098,3.9216,-199.8599,-7.1429,32.3,92750.0,,,,,,,,,,
5.14,,,,,,,,,229.643,-8.162,0.337,5.766,-0.087,633.45,30.498,,,
5.145,0.1123,1.8955,-0.0176,4.2017,-198.3193,-6.8627,32.3,92694.0,,,,,,,,,,
5.15,,,,,,,,,229.968,-8.06,0.329,5.908,-0.09,634.52,30.209,,,
5.155,0.1118,1.8682,-0.0103,3.5714,-196.4986,-6.5126,32.3,92710.0,,,,,,,,,,
5.16,,,,,,,,,230.289,-7.957,0.322,6.046,-0.092,636.49,29.863,,,
5.165,0.1152,1.8311,-0.0127,3.0112,-194.5378,-5.8123,32.3,92661.0,,,,,,,,,,
5.17,,,,,,,,,230.602,-7.853,0.315,6.181,-0.095,638.27,29.343,,,
5.175,0.1138,1.7979,-0.0127,3.5014,-194.1877,-5.3922,32.3,92625.0,,,,,,,,,,
5.18,,,,,,,,,230.911,-7.747,0.309,6.314,-0.098,641.05,28.757,,,
5.185,0.1147,1.7583,-0.0117,3.0812,-194.0476,-4.6919,32.3,92589.0,,,,,,,,,,
5.19,,,,,,,,,231.209,-7.639,0.303,6.444,-0.101,641.22,28.228,,,
5.195,0.1182,1.7222,-0.0083,2.6611,-193.1373,-4.2717,32.3,92593.0,,,,,,,,,,
5.2,,,,,,,,,231.502,-7.53,0.297,6.572,-0.105,644.62,27.526,,,
5.205,0.1187,1.6919,-0.0078,3.1513,-192.0168,-3.6415,32.3,92543.0,,,,,,,,,,
5.21,,,,,,,,,231.787,-7.418,0.292,6.698,-0.108,646.05,26.987,,,
5.215,0.1123,1.6616,-0.0142,3.1513,-191.4566,-2.9412,32.3,92521.0,,,,,,,,,,
5.22,,,,,,,,,232.067,-7.305,0.287,6.821,-0.112,649.01,26.256,,,
5.225,0.1069,1.6079,-0.0029,0.8403,-190.8964,-1.6807,32.3,92503.0,,,,,,,,,,
5.23,,,,,,,,,232.342,-7.191,0.282,6.942,-0.117,652.23,25.602,,,
5.235,0.1104,1.5791,-0.0176,1.0504,-188.5154,-1.6106,32.3,92474.0,,,,,,,,,,
5.24,,,,,,,,,232.611,-7.074,0.279,7.06,-0.121,655.09,24.823,,,
5.245,0.1104,1.5557,-0.0063,0.4902,-188.1653,-1.4706,32.3,92456.0,,,,,,,,,,
5.25,,,,,,,,,232.867,-6.958,0.276,7.175,-0.124,655.45,24.111,,,
5.255,0.1123,1.5293,0.0068,2.1008,-189.7059,-1.1204,32.3,92407.0,,,,,,,,,,
5.26,,,,,,,,,233.123,-6.839,0.273,7.288,-0.128,659.57,23.515,,,
5.265,0.1011,1.5083,-0.0278,1.4006,-188.5854,-1.4706,32.3,92399.0,,,,,,,,,,
5.27,,,,,,,,,233.371,-6.718,0.27,7.4,-0.133,661.54,22.919,,,
5.275,0.1211,1.4829,-0.0044,-0.5602,-190.1961,-1.4706,32.3,92361.0,,,,,,,,,,
5.28,,,,,,,,,233.606,-6.596,0.267,7.509,-0.137,663.15,21.861,,,
5.285,0.1001,1.4561,-0.0005,0.2101,-189.7759,-2.0308,32.3,92319.0,,,,,,,,,,
5.29,,,,,,,,,233.836,-6.471,0.264,7.618,-0.14,665.75,21.293,,,
5.295,0.0967,1.4316,-0.0249,0.1401,-190.1961,-1.5406,32.3,92293.0,,,,,,,,,,
5.3,,,,,,,,,234.06,-6.344,0.261,7.724,-0.143,667.37,20.832,,,
5.305,0.106,1.4092,-0.0049,-2.1709,-190.6863,-1.1905,32.3,92315.0,,,,,,,,,,
5.31,,,,,,,,,234.284,-6.215,0.258,7.828,-0.146,671.76,20.312,,,
5.315,0.0972,1.3789,-0.0298,-2.381,-189.5658,-1.6807,32.3,92240.0,,,,,,,,,,
5.32,,,,,,,,,234.499,-6.084,0.257,7.93,-0.148,672.48,19.899,,,
5.325,0.1074,1.3413,0.0039,-2.451,-189.1457,-1.7507,32.3,92247.0,,,,,,,,,,
5.33,,,,,,,,,234.712,-5.953,0.255,8.029,-0.149,675.89,19.399,,,
5.335,0.0903,1.3086,-0.019,-1.0504,-189.6359,-2.1709,32.3,92228.0,,,,,,,,,,
5.34,,,,,,,,,234.923,-5.82,0.253,8.126,-0.15,679.66,18.87,,,
5.345,0.0908,1.272,-0.0088,-0.7003,-189.4258,-2.1709,32.3,92182.0,,,,,,,,,,
5.35,,,,,,,,,235.124,-5.685,0.251,8.221,-0.152,680.02,18.389,,,
5.355,0.0977,1.2397,-0.0322,-1.7507,-189.1457,-2.3109,32.3,92142.0,,,,,,,,,,
5.36,,,,,,,,,235.319,-5.548,0.247,8.314,-0.154,681.99,17.947,,,
5.365,0.0933,1.2021,-0.0176,-2.1008,-188.6555,-3.1513,32.3,92148.0,,,,,,,,,,
5.37,,,,,,,,,235.514,-5.411,0.245,8.404,-0.156,686.12,17.35,,,
5.375,0.0869,1.1738,-0.0288,-0.1401,-188.3053,-3.2913,32.3,92099.0,,,,,,,,,,
5.38,,,,,,,,,235.695,-5.272,0.241,8.492,-0.156,686.75,16.61,,,
5.385,0.0938,1.1426,-0.0356,0.1401,-188.1653,-3.5714,32.3,92074.0,,,,,,,,,,
5.39,,,,,,,,,235.867,-5.132,0.237,8.577,-0.158,687.83,15.965,,,
5.395,0.0835,1.1021,-0.0312,-1.4706,-187.1849,-4.3417,32.3,92049.0,,,,,,,,,,
5.4,,,,,,,,,236.036,-4.991,0.232,8.66,-0.16,691.96,15.244,,,
5.405,0.0913,1.0664,-0.0347,0.3501,-186.6246,-4.6218,32.3,92051.0,,,,,,,,,,
5.41,,,,,,,,,236.201,-4.849,0.228,8.74,-0.16,695.02,14.609,,,
5.415,0.0942,1.0439,-0.0288,0.2801,-185.9944,-5.5322,32.3,91990.0,,,,,,,,,,
5.42,,,,,,,,,236.352,-4.707,0.222,8.818,-0.162,695.55,13.869,,,
5.425,0.0771,1.0078,-0.0449,0.0,-184.3838,-6.3025,32.3,91979.0,,,,,,,,,,
5.43,,,,,,,,,236.503,-4.564,0.216,8.893,-0.163,699.42,13.311,39.38906478881836,-8.289041519165039,0.0
5.435,0.0938,0.9722,-0.0254,0.1401,-184.944,-6.0224,32.3,91947.0,,,,,,,,,,
5.44,,,,,,,,,236.647,-4.42,0.209,8.965,-0.163,701.67,12.695,,,
5.445,0.0923,0.9312,-0.0298,2.451,-185.2941,-6.7927,32.3,91912.0,,,,,,,,,,
5.45,,,,,,,,,236.782,-4.276,0.202,9.035,-0.164,703.74,11.897,,,
5.455,0.0815,0.9038,-0.0327,1.9608,-184.8039,-7.423,32.3,91891.0,,,,,,,,,,
5.46,,,,,,,,,236.903,-4.129,0.193,9.103,-0.166,703.92,11.195,,,
5.465,0.1035,0.8599,-0.0303,3.2213,-183.1232,-7.1429,32.3,91846.0,,,,,,,,,,
5.47,,,,,,,,,237.029,-3.983,0.185,9.169,-0.167,709.23,10.753,,,
5.475,0.103,0.8203,-0.022,2.7311,-183.8936,-7.8431,32.3,91849.0,,,,,,,,,,
5.48,,,,,,,,,237.143,-3.836,0.176,9.231,-0.17,710.22,10.041,,,
5.485,0.0815,0.7896,-0.0352,2.591,-183.2633,-8.4034,32.3,91819.0,,,,,,,,,,
5.49,,,,,,,,,237.251,-3.688,0.166,9.291,-0.172,713.1,9.339,,,
5.495,0.0986,0.749,-0.0444,4.2017,-184.8739,-7.3529,32.3,91791.0,,,,,,,,,,
5.5,,,,,,,,,237.354,-3.54,0.156,9.349,-0.173,716.25,8.531,,,
5.505,0.1099,0.6992,-0.0386,1.8207,-182.8431,-7.7731,32.3,91722.0,,,,,,,,,,
5.51,,,,,,,,,237.45,-3.389,0.147,9.405,-0.176,718.14,7.992,,,
5.515,0.0835,0.6611,-0.0317,1.7507,-183.3333,-8.5434,32.3,91697.0,,,,,,,,,,
5.52,,,,,,,,,237.541,-3.239,0.138,9.458,-0.177,721.93,7.127,,,
5.525,0.1143,0.6191,-0.041,1.5406,-182.7731,-8.2633,32.3,91669.0,,,,,,,,,,
5.53,,,,,,,,,237.617,-3.088,0.128,9.508,-0.178,722.2,6.348,39.38898468017578,-8.289022445678711,12.0
5.535,0.106,0.582,-0.0376,2.3109,-182.2129,-7.7031,32.3,91633.0,,,,,,,,,,
5.54,,,,,,,,,237.688,-2.936,0.118,9.556,-0.178,724.63,5.742,,,
5.545,0.1182,0.4951,-0.0347,3.5714,-180.7423,-6.4426,32.3,91642.0,,,,,,,,,,
5.55,,,,,,,,,237.751,-2.785,0.109,9.602,-0.179,727.15,4.943,,,
5.555,0.1084,0.4526,-0.0366,4.2017,-180.8123,-6.3725,32.3,91563.0,,,,,,,,,,
5.56,,,,,,,,,237.816,-2.633,0.1,9.644,-0.182,733.38,3.962,,,
5.565,0.1182,0.417,-0.0376,2.8711,-180.042,-5.8824,32.3,91571.0,,,,,,,,,,
5.57,,,,,,,,,237.873,-2.481,0.091,9.684,-0.185,735.63,3.212,,,
5.575,0.1235,0.3696,-0.0396,3.5714,-180.4622,-5.4622,32.3,91533.0,,,,,,,,,,
5.58,,,,,,,,,237.921,-2.33,0.083,9.722,-0.187,738.16,2.385,,,
5.585,0.1187,0.3315,-0.0381,3.0112,-180.6022,-5.5322,32.3,91516.0,,,,,,,,,,
5.59,,,,,,,,,237.963,-2.177,0.075,9.757,-0.19,740.6,1.654,,,
5.595,0.1182,0.2954,-0.0356,3.9216,-180.6022,-5.2521,32.3,91461.0,,,,,,,,,,
5.6,,,,,,,,,237.982,-2.023,0.068,9.79,-0.192,741.41,-0.058,,,
5.605,0.1147,0.2539,-0.0293,4.4118,-181.1625,-5.2521,32.3,91416.0,,,,,,,,,,
5.61,,,,,,,,,238.002,-1.869,0.06,9.821,-0.194,747.01,-0.894,,,
5.615,0.0996,0.2256,-0.0229,4.1317,-181.7927,-5.1821,32.3,91400.0,,,,,,,,,,
5.62,,,,,,,,,238.01,-1.714,0.052,9.849,-0.198,747.74,-1.597,,,
5.625,0.1025,0.1895,-0.0308,5.4622,-181.1625,-4.1317,32.3,91394.0,,,,,,,,,,
5.63,,,,,,,,,238.01,-1.558,0.044,9.875,-0.201,750.45,-2.529,,,
5.635,0.105,0.1641,-0.0176,5.6022,-181.1625,-3.5014,32.3,91334.0,,,,,,,,,,
5.64,,,,,,,,,237.999,-1.403,0.037,9.898,-0.205,751.98,-3.28,,,
5.645,0.0981,0.1299,-0.0117,5.3221,-182.2829,-3.4314,32.3,91278.0,,,,,,,,,,
5.65,,,,,,,,,237.989,-1.246,0.031,9.919,-0.209,756.95,-3.991,,,
5.655,0.0996,0.1016,-0.02,5.8123,-182.0728,-3.0112,32.3,91279.0,,,,,,,,,,
5.66,,,,,,,,,237.975,-1.089,0.024,9.938,-0.213,761.03,-4.809,,,
5.665,0.1021,0.0728,-0.022,4.5518,-182.423,-3.0112,32.3,91237.0,,,,,,,,,,
5.67,,,,,,,,,237.953,-0.931,0.018,9.954,-0.217,762.47,-5.367,,,
5.675,0.0977,0.0498,-0.0103,4.902,-183.1933,-2.9412,32.3,91201.0,,,,,,,,,,
5.68,,,,,,,,,237.918,-0.773,0.012,9.967,-0.221,763.02,-6.078,,,
5.685,0.0977,0.0293,-0.0093,5.6723,-184.2437,-3.0812,32.3,91186.0,,,,,,,,,,
5.69,,,,,,,,,237.887,-0.614,0.006,9.978,-0.224,768.45,-6.578,,,
5.695,0.0957,0.0142,-0.0122,5.1821,-186.0644,-3.2213,32.3,91145.0,,,,,,,,,,
5.7,,,,,,,,,237.856,-0.454,0.0,9.987,-0.228,773.43,-7.252,,,
5.705,0.0952,-0.0015,-0.0127,5.042,-189.0056,-3.2913,32.3,91140.0,,,,,,,,,,
5.71,,,,,,,,,237.813,-0.293,-0.006,9.992,-0.232,773.52,-7.81,,,
5.715,0.0928,-0.021,-0.0127,4.4818,-190.7563,-3.3613,32.3,91159.0,,,,,,,,,,
5.72,,,,,,,,,237.767,-0.128,-0.012,9.996,-0.236,777.23,-8.377,,,
5.725,0.0879,-0.0356,-0.0093,3.4314,-192.0168,-3.7115,32.3,91089.0,,,,,,,,,,
5.73,,,,,,,,,237.72,0.036,-0.019,9.997,-0.238,780.49,-8.829,,,
5.735,0.0894,-0.0474,-0.0151,2.2409,-192.507,-3.8515,32.3,91071.0,,,,,,,,,,
5.74,,,,,,,,,237.665,0.203,-0.026,9.994,-0.24,781.86,-9.233,,,
5.745,0.0889,-0.0586,-0.0176,1.5406,-194.4678,-3.9216,32.3,91044.0,,,,,,,,,,
5.75,,,,,,,,,237.607,0.371,-0.033,9.99,-0.241,784.3,-9.531,,,
5.755,0.0879,-0.0718,-0.0068,-1.4006,-195.7983,-4.1317,32.3,90964.0,,,,,,,,,,
5.76,,,,,,,,,237.542,0.54,-0.04,9.982,-0.241,785.57,-9.839,,,
5.765,0.0776,-0.0781,0.0005,-0.3501,-197.7591,-4.2717,32.3,90962.0,,,,,,,,,,
5.77,,,,,,,,,237.468,0.71,-0.048,9.971,-0.239,786.03,-10.224,,,
5.775,0.0747,-0.0894,-0.002,1.4006,-200.6303,-3.9916,32.3,90950.0,,,,,,,,,,
5.78,,,,,,,,,237.397,0.881,-0.055,9.958,-0.237,790.65,-10.512,,,
5.785,0.0771,-0.0918,-0.0054,0.4902,-204.2717,-3.9216,32.3,90888.0,,,,,,,,,,
5.79,,,,,,,,,237.321,1.055,-0.062,9.941,-0.237,792.28,-10.743,,,
5.795,0.0786,-0.0972,0.001,0.2801,-205.6022,-3.8515,32.3,90882.0,,,,,,,,,,
5.8,,,,,,,,,237.243,1.231,-0.07,9.92,-0.236,794.73,-10.964,,,
5.805,0.0684,-0.106,0.0054,1.6106,-207.2829,-4.0616,32.3,90871.0,,,,,,,,,,
5.81,,,,,,,,,237.177,1.408,-0.077,9.897,-0.234,802.0,-11.224,,,
5.815,0.0615,-0.1084,0.0078,0.7703,-208.8235,-4.2717,32.3,90815.0,,,,,,,,,,
5.82,,,,,,,,,237.102,1.587,-0.084,9.87,-0.234,802.18,-11.349,,,
5.825,0.0669,-0.1143,0.0054,0.9804,-211.0644,-4.3417,32.3,90815.0,,,,,,,,,,
5.83,,,,,,,,,237.022,1.766,-0.092,9.839,-0.233,803.27,-11.57,,,
5.835,0.0713,-0.1216,0.0112,2.0308,-213.0252,-4.8319,32.3,90773.0,,,,,,,,,,
5.84,,,,,,,,,236.95,1.946,-0.1,9.805,-0.232,808.91,-11.618,,,
5.845,0.0649,-0.1235,0.0093,3.5014,-216.2465,-5.3221,32.3,90751.0,,,,,,,,,,
5.85,,,,,,,,,236.871,2.127,-0.108,9.767,-0.232,809.45,-11.724,,,
5.855,0.0645,-0.1279,0.0127,3.0812,-218.7675,-5.7423,32.3,90722.0,,,,,,,,,,
5.86,,,,,,,,,236.786,2.311,-0.116,9.725,-0.233,810.45,-11.897,,,
5.865,0.0669,-0.1279,0.0132,2.9412,-224.4398,-6.7227,32.3,90666.0,,,,,,,,,,
5.87,,,,,,,,,236.709,2.496,-0.124,9.679,-0.234,815.54,-11.945,,,
5.875,0.0771,-0.1597,0.0298,3.9916,-236.5546,-7.3529,32.3,90750.0,,,,,,,,,,
5.88,,,,,,,,,236.623,2.684,-0.134,9.629,-0.235,815.54,-12.061,,,
5.885,0.061,-0.1357,0.0269,4.4818,-243.9076,-7.7031,32.3,90720.0,,,,,,,,,,
5.89,,,,,,,,,236.539,2.882,-0.144,9.571,-0.236,819.36,-12.205,,,
5.895,0.0605,-0.1567,0.0195,4.902,-245.098,-7.563,32.3,90669.0,,,,,,,,,,
5.9,,,,,,,,,236.454,3.084,-0.154,9.508,-0.238,821.37,-12.243,,,
5.905,0.0605,-0.1621,-0.0078,4.5518,-243.5574,-8.1933,32.3,90641.0,,,,,,,,,,
5.91,,,,,,,,,236.361,3.286,-0.164,9.439,-0.24,821.46,-12.33,,,
5.915,0.0562,-0.1748,0.0195,2.8011,-243.9076,-8.0532,32.3,90578.0,,,,,,,,,,
5.92,,,,,,,,,236.268,3.486,-0.174,9.367,-0.242,824.01,-12.33,,,
5.925,0.0615,-0.1846,0.0186,2.3109,-245.3081,-7.8431,32.3,90543.0,,,,,,,,,,
5.93,,,,,,,,,236.167,3.684,-0.185,9.291,-0.242,824.19,-12.484,39.38882064819336,-8.288982391357422,12.0
5.935,0.062,-0.1938,0.0132,3.0812,-244.1877,-7.9132,32.3,90497.0,,,,,,,,,,
5.94,,,,,,,,,236.069,3.881,-0.196,9.21,-0.241,828.83,-12.897,,,
5.945,0.0576,-0.2041,0.002,3.4314,-243.9776,-7.6331,32.3,90427.0,,,,,,,,,,
5.95,,,,,,,,,235.963,4.076,-0.206,9.125,-0.242,829.1,-12.955,,,
5.955,0.0625,-0.2222,-0.0088,1.6807,-246.2885,-7.0728,32.3,90429.0,,,,,,,,,,
5.96,,,,,,,,,235.857,4.269,-0.216,9.037,-0.242,831.38,-13.003,,,
5.965,0.061,-0.2349,-0.0083,-0.2101,-247.479,-7.1429,32.3,90385.0,,,,,,,,,,
5.97,,,,,,,,,235.758,4.461,-0.226,8.943,-0.24,837.12,-13.253,,,
5.975,0.0464,-0.2471,-0.001,-1.9608,-248.8095,-6.7227,32.3,90352.0,,,,,,,,,,
5.98,,,,,,,,,235.659,4.653,-0.237,8.845,-0.237,840.31,-13.445,,,
5.985,0.0376,-0.2539,-0.02,-2.1709,-248.1092,-5.5322,32.3,90346.0,,,,,,,,,,
5.99,,,,,,,,,235.563,4.843,-0.248,8.742,-0.232,844.51,-13.628,,,
5.995,0.0435,-0.2642,-0.0376,-0.4202,-249.2297,-4.4118,32.3,90274.0,,,,,,,,,,
6.0,,,,,,,,,235.476,5.031,-0.259,8.635,-0.227,850.71,-13.83,,,
6.005,0.0674,-0.2749,0.0005,-0.1401,-248.9496,-3.5714,32.3,90250.0,,,,,,,,,,
6.01,,,,,,,,,235.379,5.217,-0.267,8.524,-0.222,850.89,-14.186,,,
6.015,0.0693,-0.3027,0.0,-0.6303,-248.2493,-4.0616,32.3,90227.0,,,,,,,,,,
6.02,,,,,,,,,235.283,5.4,-0.275,8.408,-0.217,854.73,-14.436,,,
6.025,0.0479,-0.3115,-0.0068,-3.5014,-245.5182,-5.4622,32.3,90245.0,,,,,,,,,,
6.03,,,,,,,,,235.187,5.58,-0.283,8.29,-0.212,857.74,-14.677,,,
6.035,0.0273,-0.3267,-0.0176,-6.3025,-244.5378,-5.7423,32.3,90221.0,,,,,,,,,,
6.04,,,,,,,,,235.083,5.756,-0.293,8.168,-0.205,858.29,-14.811,,,
6.045,0.0444,-0.3408,-0.0132,-5.8824,-243.9776,-4.6919,32.3,90137.0,,,,,,,,,,
6.05,,,,,,,,,234.989,5.928,-0.305,8.044,-0.196,864.87,-15.013,,,
6.055,0.0586,-0.3691,-0.0083,0.5602,-243.8375,-5.4622,32.3,90111.0,,,,,,,,,,
6.06,,,,,,,,,234.893,6.098,-0.315,7.916,-0.187,867.06,-15.225,,,
6.065,0.0532,-0.3735,-0.0024,6.0924,-245.5882,-7.1429,32.3,90093.0,,,,,,,,,,
6.07,,,,,,,,,234.784,6.264,-0.323,7.785,-0.183,867.52,-15.773,,,
6.075,0.0674,-0.3838,-0.041,9.1737,-244.1176,-7.563,32.3,90086.0,,,,,,,,,,
6.08,,,,,,,,,234.672,6.429,-0.329,7.649,-0.183,869.17,-15.946,,,
6.085,0.0664,-0.3994,-0.0454,5.4622,-243.6275,-9.3838,32.3,90032.0,,,,,,,,,,
6.09,,,,,,,,,234.551,6.591,-0.333,7.51,-0.186,869.71,-16.244,,,
6.095,0.0488,-0.4004,-0.0146,1.1905,-244.1877,-10.4342,32.3,89980.0,,,,,,,,,,
6.1,,,,,,,,,234.443,6.748,-0.34,7.368,-0.187,877.4,-16.523,,,
6.105,0.0552,-0.417,-0.0254,-1.7507,-242.3669,-10.1541,32.3,89995.0,,,,,,,,,,
6.11,,,,,,,,,234.328,6.903,-0.35,7.223,-0.186,879.78,-17.081,,,
6.115,0.0576,-0.4175,-0.0249,-4.1317,-242.577,-10.084,32.3,89943.0,,,,,,,,,,
6.12,,,,,,,,,234.21,7.054,-0.361,7.075,-0.183,881.42,-17.168,,,
6.125,0.0571,-0.4268,-0.0039,-3.0112,-243.6275,-10.4342,32.3,89942.0,,,,,,,,,,
6.13,,,,,,,,,234.085,7.202,-0.374,6.925,-0.178,882.07,-17.369,39.38882064819336,-8.288982391357422,12.0
6.135,0.0571,-0.4341,-0.0024,1.8908,-245.098,-10.5742,32.3,89883.0,,,,,,,,,,
6.14,,,,,,,,,233.964,7.347,-0.387,6.77,-0.174,887.01,-17.677,,,
6.145,0.0571,-0.4385,-0.0029,4.3417,-246.0084,-10.5042,32.3,89863.0,,,,,,,,,,
6.15,,,,,,,,,233.845,7.489,-0.396,6.611,-0.173,890.4,-17.696,,,
6.155,0.0566,-0.4468,0.0137,5.9524,-246.8487,-10.084,32.3,89804.0,,,,,,,,,,
6.16,,,,,,,,,233.72,7.629,-0.403,6.449,-0.173,891.77,-18.023,,,
6.165,0.0571,-0.4448,0.0176,7.2829,-247.409,-9.4538,32.3,89786.0,,,,,,,,,,
6.17,,,,,,,,,233.597,7.766,-0.408,6.283,-0.174,895.17,-18.033,,,
6.175,0.0737,-0.4556,0.0083,0.4902,-247.2689,-7.9132,32.3,89757.0,,,,,,,,,,
6.18,,,,,,,,,233.466,7.9,-0.413,6.114,-0.175,895.26,-18.216,,,
6.185,0.0718,-0.4492,0.0239,0.4902,-246.2185,-8.6835,32.3,89717.0,,,,,,,,,,
6.19,,,,,,,,,233.341,8.029,-0.421,5.942,-0.171,900.67,-18.36,,,
6.195,0.0542,-0.4478,0.0078,3.8515,-244.888,-8.6835,32.3,89703.0,,,,,,,,,,
6.2,,,,,,,,,233.214,8.155,-0.429,5.769,-0.167,902.5,-18.447,,,
6.205,0.0586,-0.4614,0.0044,6.5126,-244.4678,-8.1933,32.3,89654.0,,,,,,,,,,
6.21,,,,,,,,,233.094,8.276,-0.434,5.593,-0.166,907.92,-18.572,,,
6.215,0.0703,-0.4688,0.0181,5.9524,-245.3782,-7.8431,32.3,89645.0,,,,,,,,,,
6.22,,,,,,,,,232.971,8.393,-0.437,5.415,-0.165,909.57,-18.61,,,
6.225,0.062,-0.4648,0.0083,7.2129,-245.7283,-7.9832,32.3,89623.0,,,,,,,,,,
6.23,,,,,,,,,232.848,8.507,-0.441,5.234,-0.163,912.23,-18.629,39.388736724853516,-8.288959503173828,12.0
6.235,0.0615,-0.4678,0.0044,6.0224,-245.9384,-7.493,32.3,89587.0,,,,,,,,,,
6.24,,,,,,,,,232.729,8.617,-0.443,5.051,-0.162,915.9,-18.658,,,
6.245,0.0713,-0.4717,0.0181,4.4818,-246.2185,-6.9328,32.3,89538.0,,,,,,,,,,
6.25,,,,,,,,,232.604,8.723,-0.445,4.865,-0.161,917.19,-18.783,,,
6.255,0.0703,-0.4692,0.0151,4.5518,-247.7591,-6.6527,32.3,89511.0,,,,,,,,,,
6.26,,,,,,,,,232.484,8.826,-0.449,4.676,-0.158,921.69,-18.899,,,
6.265,0.0605,-0.4658,0.0127,3.7115,-249.0196,-6.2325,32.3,89519.0,,,,,,,,,,
6.27,,,,,,,,,232.359,8.925,-0.452,4.485,-0.154,922.52,-18.966,,,
6.275,0.0654,-0.4648,0.0151,1.8207,-249.7199,-5.6022,32.3,89455.0,,,,,,,,,,
6.28,,,,,,,,,232.232,9.02,-0.455,4.29,-0.15,924.54,-18.985,,,
6.285,0.0645,-0.4688,0.0098,-2.591,-249.5798,-5.1821,32.3,89441.0,,,,,,,,,,
6.29,,,,,,,,,232.107,9.111,-0.459,4.092,-0.145,927.85,-18.985,,,
6.295,0.0566,-0.4688,0.0044,-3.0812,-250.9804,-5.1821,32.3,89375.0,,,,,,,,,,
6.3,,,,,,,,,231.988,9.197,-0.467,3.893,-0.137,932.36,-19.024,,,
6.305,0.0566,-0.4746,0.0059,-0.3501,-252.3109,-4.7619,32.3,89362.0,,,,,,,,,,
6.31,,,,,,,,,231.867,9.28,-0.475,3.691,-0.13,934.11,-19.043,,,
6.315,0.0596,-0.4741,0.0044,2.9412,-253.0812,-4.5518,32.3,89334.0,,,,,,,,,,
6.32,,,,,,,,,231.74,9.359,-0.48,3.486,-0.122,934.84,-19.043,,,
6.325,0.0532,-0.479,0.0,5.4622,-255.2521,-4.6218,32.3,89297.0,,,,,,,,,,
6.33,,,,,,,,,231.621,9.433,-0.482,3.279,-0.116,940.0,-19.043,39.388736724853516,-8.288959503173828,12.0
6.335,0.0469,-0.4834,0.0117,3.7115,-257.2129,-3.6415,32.3,89257.0,,,,,,,,,,
6.34,,,,,,,,,231.498,9.504,-0.482,3.068,-0.11,941.29,-19.053,,,
6.345,0.0483,-0.481,0.0054,0.8403,-258.1232,-2.8711,32.3,89271.0,,,,,,,,,,
6.35,,,,,,,,,231.386,9.571,-0.483,2.855,-0.102,947.37,-19.053,,,
6.355,0.0498,-0.4756,0.0044,-0.9804,-259.3137,-2.6611,32.3,89234.0,,,,,,,,,,
6.36,,,,,,,,,231.269,9.632,-0.485,2.639,-0.094,948.56,-19.149,,,
6.365,0.0483,-0.479,0.0029,-1.5406,-259.8039,-2.591,32.3,89206.0,,,,,,,,,,
6.37,,,,,,,,,231.151,9.689,-0.489,2.421,-0.084,951.14,-19.158,,,
6.375,0.0522,-0.4756,0.0005,-1.5406,-260.4342,-2.451,32.3,89188.0,,,,,,,,,,
6.38,,,,,,,,,231.037,9.741,-0.494,2.201,-0.075,954.55,-19.178,,,
6.385,0.0474,-0.4878,-0.0054,-1.1905,-260.7143,-2.8011,32.3,89131.0,,,,,,,,,,
6.39,,,,,,,,,230.921,9.789,-0.498,1.979,-0.065,956.95,-19.178,,,
6.395,0.0449,-0.4858,-0.0024,-1.7507,-261.4846,-3.5014,32.3,89089.0,,,,,,,,,,
6.4,,,,,,,,,230.802,9.831,-0.501,1.756,-0.055,958.24,-19.245,,,
6.405,0.0474,-0.4941,-0.0059,-1.6807,-262.535,-3.9916,32.3,89073.0,,,,,,,,,,
6.41,,,,,,,,,230.682,9.868,-0.505,1.532,-0.046,960.37,-19.245,,,
6.415,0.0439,-0.5,-0.0078,-2.0308,-262.8151,-4.8319,32.3,89067.0,,,,,,,,,,
6.42,,,,,,,,,230.561,9.901,-0.509,1.306,-0.037,962.95,-19.283,,,
6.425,0.0425,-0.5034,-0.0132,-4.2017,-263.2353,-5.6022,32.3,89010.0,,,,,,,,,,
6.43,,,,,,,,,230.438,9.928,-0.512,1.079,-0.029,964.61,-19.331,,,
6.435,0.0483,-0.499,-0.0049,-1.3305,-264.4958,-6.5826,32.3,88974.0,,,,,,,,,,
6.44,,,,,,,,,230.321,9.95,-0.518,0.851,-0.021,969.87,-19.38,,,
6.445,0.0527,-0.4985,-0.002,3.5014,-265.2661,-7.6331,32.3,88983.0,,,,,,,,,,
6.45,,,,,,,,,230.209,9.967,-0.52,0.621,-0.015,973.75,-19.418,,,
6.455,0.0469,-0.4946,-0.0068,4.6218,-267.3669,-8.5434,32.3,88943.0,,,,,,,,,,
6.46,,,,,,,,,230.092,9.978,-0.519,0.39,-0.009,975.23,-19.543,,,
6.465,0.0425,-0.4902,0.0024,0.9104,-267.577,-9.2437,32.3,88913.0,,,,,,,,,,
6.47,,,,,,,,,229.97,9.985,-0.516,0.158,-0.004,975.79,-19.553,,,
6.475,0.0459,-0.4902,-0.0044,-3.7115,-267.2269,-9.4538,32.3,88906.0,,,,,,,,,,
6.48,,,,,,,,,229.855,9.986,-0.516,-0.075,0.0,981.05,-19.553,,,
6.485,0.0459,-0.4873,-0.0103,-6.1625,-268.2773,-10.014,32.3,88854.0,,,,,,,,,,
6.49,,,,,,,,,229.74,9.981,-0.52,-0.307,0.003,983.55,-19.553,,,
6.495,0.0459,-0.4814,-0.0098,-2.1008,-269.958,-10.7843,32.3,88836.0,,,,,,,,,,
6.5,,,,,,,,,229.621,9.971,-0.525,-0.541,0.006,984.38,-19.553,,,
6.505,0.0435,-0.4819,-0.0117,0.5602,-269.1877,-11.5546,32.3,88776.0,,,,,,,,,,
6.51,,,,,,,,,229.502,9.955,-0.527,-0.775,0.01,987.25,-19.553,,,
6.515,0.041,-0.4844,-0.0132,4.902,-269.2577,-11.8347,32.3,88760.0,,,,,,,,,,
6.52,,,,,,,,,229.385,9.934,-0.526,-1.009,0.012,990.02,-19.466,,,
6.525,0.0479,-0.4868,-0.0146,4.6218,-270.1681,-11.4146,32.3,88753.0,,,,,,,,,,
6.53,,,,,,,,,229.263,9.908,-0.521,-1.242,0.015,990.67,-19.466,39.38857650756836,-8.28890609741211,0.0
6.535,0.0474,-0.4854,-0.0205,1.0504,-269.7479,-11.2745,32.3,88724.0,,,,,,,,,,
6.54,,,,,,,,,229.148,9.876,-0.516,-1.475,0.018,995.48,-19.408,,,
6.545,0.0469,-0.4873,-0.0205,-3.0812,-269.1877,-10.9244,32.3,88707.0,,,,,,,,,,
6.55,,,,,,,,,229.031,9.839,-0.514,-1.708,0.021,997.15,-19.399,,,
6.555,0.0503,-0.4907,-0.0156,-4.972,-268.7675,-10.2941,32.3,88686.0,,,,,,,,,,
6.56,,,,,,,,,228.922,9.796,-0.515,-1.938,0.023,1002.71,-19.399,,,
6.565,0.0522,-0.4907,-0.0298,-3.5714,-268.9076,-9.7339,32.3,88623.0,,,,,,,,,,
6.57,,,,,,,,,228.81,9.748,-0.517,-2.167,0.026,1004.19,-19.399,,,
6.575,0.0547,-0.4946,-0.0195,0.5602,-269.5378,-9.5238,32.3,88594.0,,,,,,,,,,
6.58,,,,,,,,,228.693,9.694,-0.519,-2.395,0.029,1004.84,-19.399,,,
6.585,0.0562,-0.4917,-0.0225,6.3025,-270.5882,-9.3137,32.3,88604.0,,,,,,,,,,
6.59,,,,,,,,,228.577,9.635,-0.516,-2.623,0.033,1007.53,-19.399,,,
6.595,0.0557,-0.4902,-0.0225,8.6835,-270.3081,-8.8235,32.3,88549.0,,,,,,,,,,
6.6,,,,,,,,,228.458,9.571,-0.509,-2.849,0.039,1009.1,-19.408,,,
6.605,0.0581,-0.4946,-0.0166,6.6527,-270.5882,-8.1933,32.3,88516.0,,,,,,,,,,
6.61,,,,,,,,,228.337,9.502,-0.499,-3.074,0.046,1011.05,-19.466,,,
6.615,0.0547,-0.4912,-0.0181,3.2213,-270.028,-7.7031,32.3,88510.0,,,,,,,,,,
6.62,,,,,,,,,228.225,9.427,-0.491,-3.298,0.053,1016.89,-19.476,,,
6.625,0.0562,-0.4839,-0.019,1.5406,-269.4678,-7.0728,32.3,88468.0,,,,,,,,,,
6.63,,,,,,,,,228.111,9.347,-0.485,-3.519,0.059,1018.66,-19.476,39.38857650756836,-8.28890609741211,0.0
6.635,0.0581,-0.4795,-0.0132,3.7815,-269.6078,-6.7227,32.3,88415.0,,,,,,,,,,
6.64,,,,,,,,,227.993,9.262,-0.481,-3.737,0.065,1019.58,-19.476,,,
6.645,0.0571,-0.4751,-0.0093,3.9216,-270.5182,-6.7927,32.3,88399.0,,,,,,,,,,
6.65,,,,,,,,,227.879,9.172,-0.475,-3.954,0.072,1023.76,-19.476,,,
6.655,0.0542,-0.4722,-0.022,4.5518,-268.9776,-6.7927,32.3,88373.0,,,,,,,,,,
6.66,,,,,,,,,227.767,9.076,-0.468,-4.169,0.079,1026.82,-19.476,,,
6.665,0.0566,-0.4702,-0.0215,4.4118,-268.3473,-6.7227,32.3,88352.0,,,,,,,,,,
6.67,,,,,,,,,227.649,8.976,-0.461,-4.381,0.087,1027.38,-19.466,,,
6.675,0.0601,-0.4683,-0.0093,3.9916,-267.507,-6.7927,32.3,88327.0,,,,,,,,,,
6.68,,,,,,,,,227.537,8.872,-0.454,-4.589,0.094,1031.28,-19.341,,,
6.685,0.0552,-0.4692,-0.0151,4.5518,-266.2465,-6.7927,32.3,88289.0,,,,,,,,,,
6.69,,,,,,,,,227.433,8.763,-0.446,-4.795,0.101,1036.21,-19.255,,,
6.695,0.0469,-0.4727,-0.0098,4.972,-265.1261,-6.7927,32.3,88282.0,,,,,,,,,,
6.7,,,,,,,,,227.326,8.649,-0.438,-4.997,0.108,1037.7,-19.168,,,
6.705,0.0547,-0.4893,-0.0107,8.0532,-265.2661,-6.7927,32.3,88234.0,,,,,,,,,,
6.71,,,,,,,,,227.22,8.532,-0.43,-5.196,0.115,1040.11,-19.12,,,
6.715,0.0576,-0.4888,-0.0078,9.6639,-265.8263,-7.0728,32.3,88204.0,,,,,,,,,,
6.72,,,,,,,,,227.112,8.41,-0.419,-5.391,0.123,1042.06,-19.12,,,
6.725,0.0566,-0.4932,-0.0015,7.9132,-266.1064,-7.2829,32.3,88184.0,,,,,,,,,,
6.73,,,,,,,,,227.004,8.283,-0.406,-5.585,0.132,1044.39,-19.12,,,
6.735,0.0576,-0.4878,-0.0083,3.0812,-266.3165,-6.8627,32.3,88153.0,,,,,,,,,,
6.74,,,,,,,,,226.898,8.152,-0.394,-5.775,0.14,1047.93,-19.12,,,
6.745,0.0581,-0.4893,0.0015,-0.6303,-266.1765,-6.5826,32.3,88126.0,,,,,,,,,,
6.75,,,,,,,,,226.787,8.016,-0.386,-5.963,0.145,1048.58,-19.12,,,
6.755,0.0586,-0.4839,0.0024,-1.8908,-265.4762,-6.5826,32.2,88087.0,,,,,,,,,,
6.76,,,,,,,,,226.679,7.876,-0.38,-6.148,0.149,1053.04,-19.418,,,
6.765,0.0615,-0.4854,0.0015,-2.2409,-265.9664,-6.7227,32.3,88089.0,,,,,,,,,,
6.77,,,,,,,,,226.572,7.731,-0.375,-6.328,0.152,1055.84,-19.418,,,
6.775,0.0601,-0.4746,0.0059,1.4006,-267.7171,-6.7927,32.3,88060.0,,,,,,,,,,
6.78,,,,,,,,,226.463,7.583,-0.37,-6.506,0.155,1057.7,-19.418,,,
6.785,0.0591,-0.4751,0.002,2.381,-268.3473,-6.7227,32.3,87982.0,,,,,,,,,,
6.79,,,,,,,,,226.355,7.429,-0.362,-6.681,0.159,1060.59,-19.418,,,
6.795,0.0527,-0.4766,0.0049,1.9608,-268.9076,-6.6527,32.3,87972.0,,,,,,,,,,
6.8,,,,,,,,,226.247,7.271,-0.354,-6.853,0.165,1063.1,-19.418,,,
6.805,0.061,-0.4785,-0.0073,0.2101,-269.4678,-6.2325,32.3,87941.0,,,,,,,,,,
6.81,,,,,,,,,226.142,7.109,-0.345,-7.021,0.17,1066.56,-19.37,,,
6.815,0.0586,-0.4761,0.0015,-0.9104,-270.098,-6.1625,32.3,87943.0,,,,,,,,,,
6.82,,,,,,,,,226.031,6.942,-0.338,-7.186,0.174,1066.74,-19.341,,,
6.825,0.0557,-0.4761,-0.0015,-1.2605,-269.8179,-5.8123,32.3,87890.0,,,,,,,,,,
6.83,,,,,,,,,225.921,6.771,-0.331,-7.348,0.177,1069.26,-19.235,39.38849639892578,-8.288874626159668,12.0
6.835,0.0576,-0.478,-0.0103,0.5602,-269.888,-5.7423,32.3,87870.0,,,,,,,,,,
6.84,,,,,,,,,225.825,6.597,-0.325,-7.505,0.18,1076.54,-19.197,,,
6.845,0.0557,-0.4727,-0.0107,0.0,-269.6078,-5.6022,32.3,87865.0,,,,,,,,,,
6.85,,,,,,,,,225.725,6.419,-0.317,-7.658,0.184,1077.47,-19.197,,,
6.855,0.0552,-0.48,-0.0068,0.5602,-270.028,-5.2521,32.3,87803.0,,,,,,,,,,
6.86,,,,,,,,,225.625,6.237,-0.31,-7.807,0.188,1080.17,-19.187,,,
6.865,0.0547,-0.478,-0.0088,0.2101,-270.098,-5.2521,32.3,87823.0,,,,,,,,,,
6.87,,,,,,,,,225.518,6.052,-0.302,-7.952,0.193,1080.36,-19.187,,,
6.875,0.0498,-0.48,-0.0083,-0.2101,-269.1176,-5.5322,32.3,87800.0,,,,,,,,,,
6.88,,,,,,,,,225.418,5.864,-0.294,-8.092,0.197,1085.12,-19.197,,,
6.885,0.0527,-0.481,-0.0127,0.9804,-270.1681,-5.4622,32.3,87725.0,,,,,,,,,,
6.89,,,,,,,,,225.316,5.672,-0.286,-8.227,0.2,1086.99,-19.226,,,
6.895,0.0562,-0.479,-0.0146,1.1905,-269.3277,-5.6723,32.3,87706.0,,,,,,,,,,
6.9,,,,,,,,,225.208,5.477,-0.278,-8.359,0.204,1087.46,-19.226,,,
6.905,0.0503,-0.4834,-0.0181,1.9608,-268.2073,-6.0924,32.3,87677.0,,,,,,,,,,
6.91,,,,,,,,,225.104,5.28,-0.269,-8.485,0.209,1091.38,-19.226,,,
6.915,0.0464,-0.4849,-0.0151,1.4006,-268.2773,-6.3725,32.3,87647.0,,,,,,,,,,
6.92,,,,,,,,,224.998,5.08,-0.259,-8.606,0.213,1093.25,-19.245,,,
6.925,0.0483,-0.4893,-0.0195,1.6807,-267.3669,-6.6527,32.3,87626.0,,,,,,,,,,
6.93,,,,,,,,,224.886,4.878,-0.249,-8.722,0.217,1093.53,-19.264,,,
6.935,0.0459,-0.4922,-0.0215,1.3305,-266.8067,-7.0728,32.3,87608.0,,,,,,,,,,
6.94,,,,,,,,,224.786,4.674,-0.239,-8.834,0.221,1100.55,-19.264,,,
6.945,0.0479,-0.4937,-0.0181,1.8207,-266.1064,-7.3529,32.3,87570.0,,,,,,,,,,
6.95,,,,,,,,,224.685,4.468,-0.228,-8.94,0.224,1102.32,-19.283,,,
6.955,0.0503,-0.4927,-0.021,3.0812,-266.1064,-7.6331,32.3,87567.0,,,,,,,,,,
6.96,,,,,,,,,224.583,4.259,-0.217,-9.041,0.227,1105.04,-19.331,,,
6.965,0.0469,-0.4956,-0.0229,1.5406,-266.0364,-7.9132,32.3,87540.0,,,,,,,,,,
6.97,,,,,,,,,224.482,4.049,-0.205,-9.138,0.231,1107.84,-19.36,,,
6.975,0.0464,-0.502,-0.019,1.9608,-265.8964,-8.3333,32.3,87510.0,,,,,,,,,,
6.98,,,,,,,,,224.379,3.836,-0.194,-9.229,0.234,1109.81,-19.447,,,
6.985,0.0498,-0.4976,-0.02,1.7507,-265.3361,-8.6134,32.3,87465.0,,,,,,,,,,
6.99,,,,,,,,,224.272,3.622,-0.181,-9.316,0.236,1111.5,-19.505,,,
6.995,0.0488,-0.501,-0.0205,1.8207,-265.3361,-9.0336,32.3,87462.0,,,,,,,,,,
7.0,,,,,,,,,224.169,3.406,-0.169,-9.397,0.239,1115.05,-19.514,,,
7.005,0.0493,-0.5005,-0.0181,2.8011,-264.916,-9.1036,32.3,87400.0,,,,,,,,,,
7.01,,,,,,,,,224.059,3.188,-0.156,-9.473,0.241,1115.33,-19.533,,,
7.015,0.0503,-0.5015,-0.0244,2.2409,-264.2857,-9.3137,32.3,87368.0,,,,,,,,,,
7.02,,,,,,,,,223.949,2.969,-0.142,-9.544,0.243,1117.87,-19.572,,,
7.025,0.0503,-0.501,-0.0195,1.6106,-263.6555,-9.5938,32.3,87365.0,,,,,,,,,,
7.03,,,,,,,,,223.84,2.749,-0.129,-9.61,0.246,1120.68,-19.61,,,
7.035,0.0532,-0.5034,-0.0112,2.591,-263.7955,-9.5938,32.3,87325.0,,,,,,,,,,
7.04,,,,,,,,,223.735,2.528,-0.115,-9.671,0.247,1124.89,-19.668,,,
7.045,0.0527,-0.5049,-0.0225,2.2409,-263.6555,-9.5238,32.3,87299.0,,,,,,,,,,
7.05,,,,,,,,,223.623,2.305,-0.101,-9.726,0.249,1125.18,-19.678,,,
7.055,0.0518,-0.502,-0.0156,1.7507,-262.465,-9.7339,32.3,87296.0,,,,,,,,,,
7.06,,,,,,,,,223.521,2.081,-0.088,-9.777,0.251,1130.99,-19.678,,,
7.065,0.0522,-0.5049,-0.0181,2.7311,-262.0448,-9.5238,32.3,87248.0,,,,,,,,,,
7.07,,,,,,,,,223.421,1.858,-0.074,-9.822,0.252,1133.99,-19.687,,,
7.075,0.0542,-0.5059,-0.0239,2.8711,-261.6947,-9.2437,32.3,87224.0,,,,,,,,,,
7.08,,,,,,,,,223.314,1.633,-0.06,-9.862,0.253,1134.28,-19.687,,,
7.085,0.0508,-0.5073,-0.0127,2.381,-261.4146,-9.2437,32.3,87212.0,,,,,,,,,,
7.09,,,,,,,,,223.21,1.408,-0.046,-9.896,0.255,1138.03,-19.697,,,
7.095,0.0552,-0.5083,-0.0156,2.8011,-260.084,-9.1036,32.3,87188.0,,,,,,,,,,
7.1,,,,,,,,,223.106,1.183,-0.032,-9.926,0.256,1140.47,-19.726,,,
7.105,0.0581,-0.5103,-0.0186,3.1513,-260.2941,-8.4734,32.3,87166.0,,,,,,,,,,
7.11,,,,,,,,,222.996,0.958,-0.019,-9.95,0.258,1140.75,-19.755,,,
7.115,0.0562,-0.5098,-0.0146,2.381,-260.014,-8.1933,32.3,87088.0,,,,,,,,,,
7.12,,,,,,,,,222.891,0.733,-0.006,-9.969,0.26,1145.26,-19.755,,,
7.125,0.0518,-0.5176,-0.0024,3.9216,-259.8739,-7.7031,32.3,87091.0,,,,,,,,,,
7.13,,,,,,,,,222.786,0.507,0.006,-9.983,0.261,1147.52,-19.774,39.38835144042969,-8.288797378540039,12.0
7.135,0.0522,-0.5137,-0.0122,4.7619,-260.014,-7.2829,32.3,87094.0,,,,,,,,,,
7.14,,,,,,,,,222.676,0.281,0.019,-9.992,0.263,1148.65,-19.803,,,
7.145,0.0576,-0.5171,-0.0024,4.7619,-259.2437,-6.8627,32.3,87077.0,,,,,,,,,,
7.15,,,,,,,,,222.566,0.055,0.031,-9.996,0.265,1150.9,-19.822,,,
7.155,0.0503,-0.522,-0.0049,5.3221,-259.1737,-7.0728,32.3,87073.0,,,,,,,,,,
7.16,,,,,,,,,222.454,-0.17,0.043,-9.994,0.268,1152.97,-19.851,,,
7.165,0.0464,-0.5293,-0.0068,5.042,-258.1232,-6.7927,32.3,86978.0,,,,,,,,,,
7.17,,,,,,,,,222.354,-0.395,0.054,-9.988,0.271,1159.74,-19.86,,,
7.175,0.061,-0.5483,-0.0127,5.5322,-258.6835,-6.0924,32.3,86958.0,,,,,,,,,,
7.18,,,,,,,,,222.248,-0.619,0.066,-9.976,0.274,1160.02,-19.928,,,
7.185,0.0537,-0.5615,0.0166,5.042,-259.3838,-6.8627,32.3,86917.0,,,,,,,,,,
7.19,,,,,,,,,222.134,-0.844,0.077,-9.96,0.276,1160.31,-19.995,,,
7.195,0.0366,-0.5718,-0.0034,5.6022,-258.1933,-6.6527,32.3,86898.0,,,,,,,,,,
7.2,,,,,,,,,222.017,-1.068,0.088,-9.938,0.279,1161.34,-20.005,,,
7.205,0.0503,-0.5576,-0.0054,5.6022,-258.4734,-6.4426,32.3,86873.0,,,,,,,,,,
7.21,,,,,,,,,221.892,-1.291,0.1,-9.911,0.281,1161.72,-20.091,,,
7.215,0.0601,-0.5679,0.0122,4.5518,-260.1541,-5.7423,32.3,86846.0,,,,,,,,,,
7.22,,,,,,,,,221.785,-1.514,0.111,-9.879,0.284,1170.66,-20.236,,,
7.225,0.0483,-0.5625,0.0117,4.972,-260.014,-6.4426,32.3,86808.0,,,,,,,,,,
7.23,,,,,,,,,221.672,-1.737,0.121,-9.842,0.285,1172.55,-20.611,,,
7.235,0.0479,-0.5547,0.0044,5.3221,-260.7143,-6.3025,32.3,86788.0,,,,,,,,,,
7.24,,,,,,,,,221.561,-1.959,0.132,-9.8,0.287,1176.41,-20.793,,,
7.245,0.0518,-0.5615,0.0122,4.902,-262.1148,-6.0924,32.3,86795.0,,,,,,,,,,
7.25,,,,,,,,,221.448,-2.181,0.143,-9.753,0.289,1178.2,-20.793,,,
7.255,0.0317,-0.5591,0.0083,5.1821,-263.2353,-6.3025,32.3,86723.0,,,,,,,,,,
7.26,,,,,,,,,221.335,-2.403,0.154,-9.701,0.29,1180.56,-20.87,,,
7.265,0.0386,-0.5562,0.0205,3.9916,-263.5154,-6.2325,32.3,86717.0,,,,,,,,,,
7.27,,,,,,,,,221.221,-2.625,0.165,-9.643,0.291,1183.1,-20.87,,,
7.275,0.0723,-0.5483,0.0151,4.7619,-264.916,-5.4622,32.3,86686.0,,,,,,,,,,
7.28,,,,,,,,,221.11,-2.845,0.176,-9.58,0.291,1186.69,-20.87,,,
7.285,0.0508,-0.5537,0.0107,4.0616,-265.2661,-6.7227,32.3,86651.0,,,,,,,,,,
7.29,,,,,,,,,220.997,-3.065,0.185,-9.512,0.292,1187.91,-20.822,,,
7.295,0.0308,-0.5444,0.0312,3.4314,-267.1569,-6.7227,32.3,86642.0,,,,,,,,,,
7.3,,,,,,,,,220.878,-3.284,0.197,-9.438,0.292,1188.57,-20.793,,,
7.305,0.0591,-0.5464,0.0156,4.4118,-267.9972,-5.5322,32.3,86619.0,,,,,,,,,,
7.31,,,,,,,,,220.771,-3.503,0.208,-9.359,0.291,1194.71,-20.765,,,
7.315,0.0522,-0.5586,-0.0264,3.9916,-267.507,-7.0028,32.3,86573.0,,,,,,,,,,
7.32,,,,,,,,,220.658,-3.72,0.218,-9.274,0.291,1195.28,-20.736,,,
7.325,0.0264,-0.5425,0.0293,0.07,-269.3277,-6.9328,32.3,86522.0,,,,,,,,,,
7.33,,,,,,,,,220.546,-3.935,0.229,-9.185,0.29,1198.2,-20.736,39.38827896118164,-8.288759231567383,12.0
7.335,0.0435,-0.5566,0.0366,1.6106,-269.5378,-5.8123,32.3,86511.0,,,,,,,,,,
7.34,,,,,,,,,220.437,-4.149,0.241,-9.09,0.286,1201.51,-20.716,,,
7.345,0.0547,-0.5518,-0.0166,1.8908,-271.5686,-6.0224,32.3,86490.0,,,,,,,,,,
7.35,,,,,,,,,220.324,-4.361,0.252,-8.99,0.283,1202.36,-20.716,,,
7.355,0.0356,-0.5356,0.0259,0.4902,-273.7395,-6.2325,32.3,86486.0,,,,,,,,,,
7.36,,,,,,,,,220.21,-4.572,0.263,-8.884,0.28,1204.53,-20.678,,,
7.365,0.0283,-0.5459,0.0459,-0.3501,-272.3389,-5.6723,32.3,86452.0,,,,,,,,,,
7.37,,,,,,,,,220.102,-4.783,0.274,-8.773,0.276,1208.88,-20.611,,,
7.375,0.0591,-0.5522,-0.0112,2.0308,-272.549,-5.8824,32.3,86415.0,,,,,,,,,,
7.38,,,,,,,,,220.0,-4.989,0.285,-8.657,0.271,1213.71,-20.572,,,
7.385,0.0566,-0.5381,0.0054,0.2801,-273.3894,-6.5826,32.3,86416.0,,,,,,,,,,
7.39,,,,,,,,,219.895,-5.193,0.295,-8.536,0.267,1214.74,-20.572,,,
7.395,0.0254,-0.5405,0.0435,-0.7003,-274.7899,-6.0924,32.3,86385.0,,,,,,,,,,
7.4,,,,,,,,,219.789,-5.395,0.306,-8.41,0.263,1216.73,-20.572,,,
7.405,0.0415,-0.5518,0.0015,1.0504,-274.7199,-6.5826,32.3,86323.0,,,,,,,,,,
7.41,,,,,,,,,219.677,-5.594,0.317,-8.278,0.257,1217.11,-20.563,,,
7.415,0.0518,-0.5425,0.0005,0.4902,-274.5798,-6.6527,32.3,86307.0,,,,,,,,,,
7.42,,,,,,,,,219.566,-5.79,0.328,-8.142,0.252,1220.33,-20.563,,,
7.425,0.0376,-0.5396,0.0205,1.2605,-275.2101,-6.7927,32.3,86305.0,,,,,,,,,,
7.43,,,,,,,,,219.459,-5.983,0.338,-8.001,0.247,1223.74,-20.563,,,
7.435,0.0386,-0.5459,0.0122,1.9608,-275.4202,-6.1625,32.3,86273.0,,,,,,,,,,
7.44,,,,,,,,,219.346,-6.173,0.348,-7.855,0.243,1223.83,-20.495,,,
7.445,0.0303,-0.5449,0.0317,0.4202,-277.9412,-7.3529,32.3,86252.0,,,,,,,,,,
7.45,,,,,,,,,219.233,-6.36,0.358,-7.704,0.238,1226.67,-20.495,,,
7.455,0.0254,-0.5454,0.0039,1.7507,-277.8011,-6.9328,32.3,86222.0,,,,,,,,,,
7.46,,,,,,,,,219.13,-6.544,0.368,-7.548,0.233,1232.55,-20.543,,,
7.465,0.0469,-0.5337,-0.0156,1.3305,-277.7311,-6.9328,32.2,86168.0,,,,,,,,,,
7.47,,,,,,,,,219.024,-6.725,0.377,-7.387,0.229,1234.06,-20.543,,,
7.475,0.0522,-0.5298,0.0513,0.2101,-278.1513,-7.1429,32.3,86199.0,,,,,,,,,,
7.48,,,,,,,,,218.913,-6.901,0.387,-7.222,0.224,1234.25,-20.495,,,
7.485,0.0259,-0.5347,0.0103,2.521,-277.9412,-7.3529,32.3,86159.0,,,,,,,,,,
7.49,,,,,,,,,218.802,-7.074,0.397,-7.053,0.218,1237.29,-20.495,,,
7.495,0.0259,-0.5396,-0.0059,2.7311,-277.8011,-8.4734,32.3,86095.0,,,,,,,,,,
7.5,,,,,,,,,218.691,-7.243,0.405,-6.879,0.213,1239.28,-20.495,,,
7.505,0.0493,-0.5312,0.0298,1.6807,-278.5714,-7.3529,32.3,86080.0,,,,,,,,,,
7.51,,,,,,,,,218.581,-7.407,0.414,-6.702,0.21,1242.12,-20.438,,,
7.515,0.0483,-0.5288,-0.0093,3.4314,-277.591,-7.423,32.3,86033.0,,,,,,,,,,
7.52,,,,,,,,,218.471,-7.567,0.422,-6.52,0.205,1244.3,-20.438,,,
7.525,0.0239,-0.5249,-0.001,2.381,-278.0812,-8.4034,32.3,86036.0,,,,,,,,,,
7.53,,,,,,,,,218.363,-7.722,0.43,-6.335,0.201,1247.24,-20.341,39.388206481933594,-8.288724899291992,12.0
7.535,0.0366,-0.5366,0.0205,1.2605,-277.7311,-7.9132,32.3,86003.0,,,,,,,,,,
7.54,,,,,,,,,218.251,-7.873,0.438,-6.145,0.196,1248.1,-20.322,,,
7.545,0.0493,-0.5317,0.0264,2.9412,-277.591,-7.7731,32.3,86008.0,,,,,,,,,,
7.55,,,,,,,,,218.148,-8.02,0.446,-5.953,0.191,1254.18,-20.322,,,
7.555,0.0361,-0.5234,-0.0083,3.9216,-277.2409,-8.2633,32.3,85981.0,,,,,,,,,,
7.56,,,,,,,,,218.044,-8.161,0.453,-5.757,0.187,1255.6,-20.284,,,
7.565,0.0449,-0.5308,0.0186,3.1513,-277.8711,-7.423,32.3,85925.0,,,,,,,,,,
7.57,,,,,,,,,217.944,-8.298,0.459,-5.558,0.183,1259.78,-20.274,,,
7.575,0.0513,-0.5376,0.0293,3.2913,-278.3613,-7.7731,32.3,85939.0,,,,,,,,,,
7.58,,,,,,,,,217.838,-8.43,0.465,-5.355,0.178,1260.07,-20.274,,,
7.585,0.0332,-0.5308,0.0117,3.7115,-278.7115,-9.2437,32.3,85868.0,,,,,,,,,,
7.59,,,,,,,,,217.732,-8.557,0.471,-5.149,0.173,1262.44,-20.274,,,
7.595,0.0405,-0.521,0.0093,1.8908,-280.042,-7.7031,32.3,85889.0,,,,,,,,,,
7.6,,,,,,,,,217.621,-8.679,0.477,-4.939,0.17,1262.92,-20.264,,,
7.605,0.0596,-0.5356,0.0186,3.0812,-281.2325,-7.9132,32.3,85855.0,,,,,,,,,,
7.61,,,,,,,,,217.508,-8.797,0.483,-4.726,0.164,1265.01,-20.264,,,
7.615,0.042,-0.5205,0.0186,2.8011,-283.4034,-9.1036,32.3,85829.0,,,,,,,,,,
7.62,,,,,,,,,217.4,-8.91,0.489,-4.509,0.159,1269.0,-20.264,,,
7.625,0.0264,-0.5137,0.0068,1.6106,-283.9636,-8.1933,32.3,85779.0,,,,,,,,,,
7.63,,,,,,,,,217.289,-9.019,0.494,-4.287,0.154,1270.33,-20.264,,,
7.635,0.0361,-0.5112,0.0405,2.521,-283.8235,-7.1429,32.3,85761.0,,,,,,,,,,
7.64,,,,,,,,,217.181,-9.122,0.5,-4.062,0.148,1273.76,-20.264,,,
7.645,0.0259,-0.5288,0.0098,3.0112,-283.4734,-6.9328,32.3,85755.0,,,,,,,,,,
7.65,,,,,,,,,217.073,-9.22,0.505,-3.835,0.142,1275.76,-20.12,,,
7.655,0.0425,-0.5259,0.0269,3.1513,-283.9636,-6.0924,32.3,85722.0,,,,,,,,,,
7.66,,,,,,,,,216.961,-9.311,0.509,-3.606,0.136,1276.99,-20.226,,,
7.665,0.0415,-0.5273,0.0132,2.1008,-284.8039,-5.4622,32.3,85698.0,,,,,,,,,,
7.67,,,,,,,,,216.849,-9.398,0.512,-3.375,0.128,1279.47,-20.168,,,
7.675,0.0386,-0.5244,0.0239,2.2409,-285.2241,-6.7227,32.3,85702.0,,,,,,,,,,
7.68,,,,,,,,,216.744,-9.479,0.515,-3.14,0.12,1284.23,-20.168,,,
7.685,0.0371,-0.5088,0.0103,2.381,-285.7143,-6.1625,32.3,85620.0,,,,,,,,,,
7.69,,,,,,,,,216.637,-9.554,0.519,-2.904,0.113,1285.95,-20.139,,,
7.695,0.0356,-0.5122,0.0308,2.381,-285.8543,-5.042,32.3,85591.0,,,,,,,,,,
7.7,,,,,,,,,216.525,-9.623,0.522,-2.665,0.105,1286.52,-20.139,,,
7.705,0.04,-0.5205,0.0068,1.6807,-286.5546,-5.042,32.3,85574.0,,,,,,,,,,
7.71,,,,,,,,,216.416,-9.686,0.524,-2.424,0.097,1289.66,-20.062,,,
7.715,0.0312,-0.5151,0.0474,2.1008,-287.0448,-5.8123,32.3,85553.0,,,,,,,,,,
7.72,,,,,,,,,216.306,-9.744,0.526,-2.182,0.088,1291.57,-20.062,,,
7.725,0.0269,-0.5039,0.0015,3.1513,-287.0448,-5.1821,32.3,85521.0,,,,,,,,,,
7.73,,,,,,,,,216.19,-9.795,0.528,-1.937,0.079,1291.95,-20.062,,,
7.735,0.0527,-0.5039,0.0249,1.1905,-287.8151,-5.8123,32.3,85494.0,,,,,,,,,,
7.74,,,,,,,,,216.087,-9.841,0.529,-1.691,0.071,1299.39,-20.062,,,
7.745,0.0469,-0.5215,0.021,1.1905,-289.1457,-6.5126,32.3,85480.0,,,,,,,,,,
7.75,,,,,,,,,215.987,-9.88,0.531,-1.444,0.062,1302.15,-19.957,,,
7.755,0.0337,-0.5117,0.0342,0.8403,-290.6863,-5.9524,32.3,85435.0,,,,,,,,,,
7.76,,,,,,,,,215.885,-9.913,0.533,-1.194,0.054,1303.78,-19.957,,,
7.765,0.0547,-0.5186,0.042,1.3305,-291.8067,-6.7927,32.3,85420.0,,,,,,,,,,
7.77,,,,,,,,,215.782,-9.94,0.535,-0.943,0.045,1305.78,-19.899,,,
7.775,0.0215,-0.5049,-0.0044,2.1709,-292.3669,-8.2633,32.3,85421.0,,,,,,,,,,
7.78,,,,,,,,,215.68,-9.961,0.536,-0.69,0.037,1308.84,-19.899,,,
7.785,0.0293,-0.5093,0.0259,0.2801,-295.028,-6.5126,32.3,85377.0,,,,,,,,,,
7.79,,,,,,,,,215.579,-9.976,0.536,-0.436,0.031,1311.42,-19.899,,,
7.795,0.0493,-0.5103,0.0151,1.1905,-295.4482,-7.1429,32.3,85385.0,,,,,,,,,,
7.8,,,,,,,,,215.476,-9.983,0.537,-0.179,0.022,1312.75,-19.889,,,
7.805,0.0244,-0.499,0.0322,0.9104,-296.2885,-7.6331,32.3,85358.0,,,,,,,,,,
7.81,,,,,,,,,215.377,-9.985,0.538,0.077,0.014,1317.05,-19.86,,,
7.815,0.0254,-0.5024,0.0278,1.6106,-295.9384,-7.0028,32.3,85339.0,,,,,,,,,,
7.82,,,,,,,,,215.276,-9.979,0.538,0.335,0.007,1318.39,-19.841,,,
7.825,0.0479,-0.5049,0.021,1.0504,-297.479,-6.3725,32.3,85306.0,,,,,,,,,,
7.83,,,,,,,,,215.169,-9.967,0.537,0.593,0.0,1318.49,-19.841,,,
7.835,0.0425,-0.4995,0.0513,0.7003,-299.5098,-7.9832,32.3,85259.0,,,,,,,,,,
7.84,,,,,,,,,215.064,-9.949,0.536,0.851,-0.009,1321.83,-19.841,,,
7.845,0.0239,-0.5044,0.0063,2.521,-299.1597,-8.0532,32.3,85241.0,,,,,,,,,,
7.85,,,,,,,,,214.955,-9.923,0.535,1.111,-0.016,1322.6,-19.755,,,
7.855,0.0376,-0.5073,0.0063,0.7003,-300.9804,-6.1625,32.3,85195.0,,,,,,,,,,
7.86,,,,,,,,,214.845,-9.891,0.532,1.369,-0.024,1324.41,-19.755,,,
7.865,0.0356,-0.4985,0.0391,0.7703,-301.2605,-7.2829,32.3,85183.0,,,,,,,,,,
7.87,,,,,,,,,214.733,-9.852,0.531,1.628,-0.033,1326.23,-19.755,,,
7.875,0.019,-0.4966,0.0098,1.2605,-301.2605,-7.3529,32.3,85154.0,,,,,,,,,,
7.88,,,,,,,,,214.624,-9.806,0.529,1.886,-0.041,1329.39,-19.745,,,
7.885,0.0264,-0.4927,0.0142,1.0504,-301.0504,-6.4426,32.3,85120.0,,,,,,,,,,
7.89,,,,,,,,,214.52,-9.753,0.526,2.143,-0.049,1333.89,-19.707,,,
