ts,id,Ax,Ay,Az,Gx,Gy,Gz
-0.745,IMU0,0.0546875,0.48876953125,0.04443359375,0.7703081232492998,-2.3109243697478994,-0.350140056022409
-0.735,IMU0,0.05078125,0.5048828125,0.02783203125,1.050420168067227,-3.361344537815126,-0.2801120448179272
-0.725,IMU0,0.05859375,0.49658203125,0.03857421875,0.7703081232492998,-3.431372549019608,-0.42016806722689076
-0.715,IMU0,0.03662109375,0.50048828125,0.044921875,0.5602240896358543,-1.680672268907563,-0.42016806722689076
-0.705,IMU0,0.03515625,0.50146484375,0.0771484375,0.6302521008403361,8.053221288515406,-0.21008403361344538
-0.695,IMU0,0.04052734375,0.50048828125,0.0576171875,0.42016806722689076,11.204481792717088,-0.21008403361344538
-0.685,IMU0,0.05224609375,0.51171875,0.080078125,0.9103641456582633,11.414565826330533,0.0
-0.675,IMU0,0.05615234375,0.47314453125,0.0556640625,1.400560224089636,6.652661064425771,0.0
-0.665,IMU0,0.06787109375,0.5,0.06103515625,1.5406162464985995,1.400560224089636,-0.1400560224089636
-0.655,IMU0,0.052734375,0.521484375,-0.00244140625,2.030812324929972,0.7703081232492998,0.2801120448179272
-0.645,IMU0,0.06689453125,0.5029296875,-0.01416015625,0.9103641456582633,-0.7703081232492998,-0.2801120448179272
-0.635,IMU0,0.0615234375,0.494140625,0.0419921875,0.2801120448179272,-1.5406162464985995,-0.4901960784313726
-0.625,IMU0,0.0654296875,0.51171875,0.0537109375,0.6302521008403361,-0.2801120448179272,-0.42016806722689076
-0.615,IMU0,0.05224609375,0.50146484375,0.05322265625,0.5602240896358543,-5.322128851540617,-0.700280112044818
-0.605,IMU0,0.0517578125,0.48876953125,0.04052734375,0.9803921568627452,-8.19327731092437,-0.42016806722689076
-0.595,IMU0,0.05224609375,0.484375,0.03271484375,0.7703081232492998,-9.38375350140056,-0.2801120448179272
-0.585,IMU0,0.0498046875,0.50244140625,0.02783203125,0.8403361344537815,-6.862745098039216,-0.4901960784313726
-0.575,IMU0,0.05078125,0.50048828125,0.04638671875,0.6302521008403361,-3.5014005602240896,-0.42016806722689076
-0.565,IMU0,0.04150390625,0.4970703125,0.06494140625,0.5602240896358543,-2.450980392156863,-0.6302521008403361
-0.555,IMU0,0.03857421875,0.50244140625,0.0693359375,0.700280112044818,-1.6106442577030813,-0.42016806722689076
-0.545,IMU0,0.0458984375,0.48876953125,0.0537109375,1.1204481792717087,-0.350140056022409,-0.21008403361344538
-0.535,IMU0,0.04150390625,0.501953125,0.0517578125,0.8403361344537815,0.5602240896358543,-0.42016806722689076
-0.525,IMU0,0.05517578125,0.49267578125,0.04638671875,1.1904761904761905,3.081232492997199,0.0
-0.515,IMU0,0.056640625,0.5009765625,0.041015625,0.9803921568627452,2.450980392156863,-0.1400560224089636
-0.505,IMU0,0.04736328125,0.50634765625,0.03271484375,0.9803921568627452,1.400560224089636,-0.4901960784313726
-0.495,IMU0,0.06103515625,0.5009765625,0.0419921875,1.050420168067227,3.2913165266106446,-0.0700280112044818
-0.485,IMU0,0.05908203125,0.49560546875,0.04052734375,0.8403361344537815,1.1904761904761905,-0.2801120448179272
-0.475,IMU0,0.0537109375,0.49609375,0.0439453125,0.7703081232492998,-1.1204481792717087,-0.350140056022409
-0.465,IMU0,0.05029296875,0.4990234375,0.0419921875,1.050420168067227,-4.901960784313726,-0.42016806722689076
-0.455,IMU0,0.06005859375,0.50439453125,0.03515625,1.050420168067227,-3.011204481792717,-0.21008403361344538
-0.445,IMU0,0.05810546875,0.4990234375,0.0400390625,0.700280112044818,-2.3109243697478994,-0.350140056022409
-0.435,IMU0,0.046875,0.5029296875,0.0517578125,0.700280112044818,-1.8207282913165266,-0.5602240896358543
-0.425,IMU0,0.0458984375,0.49853515625,0.06103515625,0.5602240896358543,-1.680672268907563,-0.350140056022409
-0.415,IMU0,0.044921875,0.4970703125,0.06396484375,0.8403361344537815,-0.700280112044818,-0.2801120448179272
-0.405,IMU0,0.048828125,0.49560546875,0.056640625,1.2605042016806722,0.21008403361344538,-0.21008403361344538
-0.395,IMU0,0.0556640625,0.5,0.041015625,1.050420168067227,-0.42016806722689076,-0.1400560224089636
-0.385,IMU0,0.0576171875,0.4990234375,0.037109375,1.050420168067227,1.8207282913165266,-0.2801120448179272
-0.375,IMU0,0.05517578125,0.498046875,0.037109375,1.6106442577030813,4.201680672268908,-0.0700280112044818
-0.365,IMU0,0.0537109375,0.49951171875,0.0419921875,1.050420168067227,3.081232492997199,-0.2801120448179272
-0.355,IMU0,0.056640625,0.50048828125,0.03564453125,1.1904761904761905,1.2605042016806722,-0.350140056022409
-0.345,IMU0,0.05908203125,0.4990234375,0.04052734375,0.5602240896358543,-2.6610644257703084,-0.350140056022409
-0.335,IMU0,0.0556640625,0.4990234375,0.04833984375,0.9103641456582633,-5.112044817927171,-0.42016806722689076
-0.325,IMU0,0.04931640625,0.49853515625,0.03857421875,0.9803921568627452,-5.8123249299719895,-0.42016806722689076
-0.315,IMU0,0.0498046875,0.49560546875,0.0419921875,0.8403361344537815,-5.182072829131653,-0.350140056022409
-0.305,IMU0,0.044921875,0.4951171875,0.0458984375,0.7703081232492998,-3.5714285714285716,-0.4901960784313726
-0.295,IMU0,0.0458984375,0.5,0.05908203125,0.700280112044818,-1.2605042016806722,-0.42016806722689076
-0.285,IMU0,0.041015625,0.49853515625,0.056640625,0.8403361344537815,1.3305322128851542,-0.21008403361344538
-0.275,IMU0,0.0458984375,0.5009765625,0.048828125,1.1204481792717087,2.73109243697479,-0.21008403361344538
-0.265,IMU0,0.05615234375,0.50048828125,0.05029296875,0.9103641456582633,1.2605042016806722,-0.1400560224089636
-0.255,IMU0,0.06103515625,0.5,0.046875,0.9803921568627452,0.9803921568627452,-0.21008403361344538
-0.245,IMU0,0.0546875,0.4990234375,0.029296875,1.2605042016806722,1.400560224089636,-0.21008403361344538
-0.235,IMU0,0.0556640625,0.49951171875,0.03125,0.9103641456582633,0.9803921568627452,-0.2801120448179272
-0.225,IMU0,0.0595703125,0.50048828125,0.03662109375,0.8403361344537815,0.700280112044818,-0.2801120448179272
-0.215,IMU0,0.0546875,0.49365234375,0.04248046875,0.7703081232492998,-0.9103641456582633,-0.350140056022409
-0.205,IMU0,0.052734375,0.5,0.0478515625,0.6302521008403361,-3.711484593837535,-0.4901960784313726
-0.195,IMU0,0.052734375,0.50341796875,0.048828125,1.050420168067227,-3.711484593837535,-0.350140056022409
-0.185,IMU0,0.05615234375,0.49609375,0.03515625,1.050420168067227,-3.781512605042017,-0.2801120448179272
-0.175,IMU0,0.04833984375,0.49462890625,0.025390625,0.9103641456582633,-3.151260504201681,-0.42016806722689076
-0.165,IMU0,0.05419921875,0.50830078125,0.04736328125,0.5602240896358543,-0.700280112044818,-0.42016806722689076
-0.155,IMU0,0.0419921875,0.5107421875,0.04736328125,0.6302521008403361,0.42016806722689076,-0.350140056022409
-0.145,IMU0,0.056640625,0.6796875,0.0615234375,1.050420168067227,-1.050420168067227,-0.42016806722689076
-0.135,IMU0,0.05712890625,0.91162109375,0.06982421875,1.050420168067227,-3.8515406162464987,-0.7703081232492998
-0.125,IMU0,0.05615234375,1.23193359375,0.05517578125,1.2605042016806722,-3.8515406162464987,-0.350140056022409
-0.115,IMU0,0.04638671875,1.59814453125,0.046875,1.2605042016806722,-0.2801120448179272,-0.1400560224089636
-0.105,IMU0,0.06396484375,1.8271484375,0.06884765625,0.6302521008403361,3.2212885154061626,-0.21008403361344538
-0.095,IMU0,0.0703125,2.04296875,0.10009765625,0.5602240896358543,4.551820728291316,-0.2801120448179272
-0.085,IMU0,0.0751953125,2.05078125,0.0908203125,1.1204481792717087,-0.2801120448179272,-0.9803921568627452
-0.075,IMU0,0.046875,2.041015625,0.05810546875,1.7507002801120448,-3.431372549019608,-0.7703081232492998
-0.065,IMU0,0.0439453125,2.04833984375,0.02197265625,1.400560224089636,1.2605042016806722,-0.2801120448179272
-0.055,IMU0,0.0966796875,2.05126953125,0.0322265625,1.7507002801120448,9.663865546218489,0.700280112044818
-0.045,IMU0,0.05517578125,2.22021484375,0.16552734375,0.2801120448179272,3.9215686274509807,0.1400560224089636
-0.035,IMU0,0.0908203125,2.32470703125,-0.0048828125,0.8403361344537815,1.7507002801120448,-0.7703081232492998
-0.025,IMU0,0.068359375,2.46435546875,0.07763671875,0.9803921568627452,6.162464985994398,-1.050420168067227
-0.015,IMU0,0.0703125,2.6328125,0.09130859375,0.6302521008403361,9.663865546218489,-0.8403361344537815
-0.005,IMU0,0.06689453125,2.79052734375,0.0595703125,0.4901960784313726,0.350140056022409,-0.6302521008403361
0.005,IMU0,0.06689453125,3.0439453125,0.064453125,1.3305322128851542,-2.5910364145658265,-0.5602240896358543
0.015,IMU0,0.0712890625,3.494140625,0.08544921875,2.5210084033613445,6.23249299719888,0.0
0.025,IMU0,0.06884765625,3.54443359375,0.10400390625,1.400560224089636,8.96358543417367,-1.4705882352941178
0.035,IMU0,0.05517578125,3.580078125,0.07275390625,-0.21008403361344538,2.8711484593837535,-0.700280112044818
0.045,IMU0,0.0751953125,3.783203125,0.11279296875,0.350140056022409,8.333333333333334,-0.2801120448179272
0.055,IMU0,0.10009765625,3.8935546875,0.10986328125,0.2801120448179272,0.0700280112044818,-0.5602240896358543
0.065,IMU0,0.1015625,3.83740234375,0.07666015625,0.4901960784313726,-0.5602240896358543,-0.42016806722689076
0.075,IMU0,0.07275390625,3.70458984375,0.11376953125,0.0,4.061624649859944,-0.350140056022409
0.085,IMU0,0.0986328125,3.58056640625,0.1015625,0.1400560224089636,1.1904761904761905,-0.42016806722689076
0.095,IMU0,0.0927734375,3.49853515625,0.10888671875,0.21008403361344538,-0.5602240896358543,-0.7703081232492998
0.105,IMU0,0.07763671875,3.50341796875,0.0751953125,0.4901960784313726,4.411764705882353,-1.4705882352941178
0.115,IMU0,0.05419921875,3.564453125,0.0908203125,0.9803921568627452,4.831932773109244,-1.7507002801120448
0.125,IMU0,0.08544921875,3.62353515625,0.107421875,0.4901960784313726,0.350140056022409,-1.3305322128851542
0.135,IMU0,0.08544921875,3.68408203125,0.1357421875,0.5602240896358543,-2.380952380952381,-1.7507002801120448
0.145,IMU0,0.09130859375,3.6845703125,0.11962890625,0.9803921568627452,-4.551820728291316,-1.3305322128851542
0.155,IMU0,0.05224609375,3.658203125,0.103515625,1.2605042016806722,-2.8711484593837535,-1.1204481792717087
0.165,IMU0,0.52685546875,3.6357421875,0.17529296875,2.2408963585434174,-3.5014005602240896,-2.8711484593837535
0.175,IMU0,0.2607421875,3.46533203125,0.01220703125,2.3109243697478994,17.717086834733895,0.2801120448179272
0.185,IMU0,0.26123046875,3.6826171875,0.0517578125,0.8403361344537815,7.703081232492997,-8.053221288515406
0.195,IMU0,0.08349609375,3.54931640625,0.07275390625,-1.1904761904761905,3.711484593837535,-11.414565826330533
0.205,IMU0,0.06787109375,3.82275390625,0.09765625,-3.081232492997199,-9.803921568627452,-10.154061624649861
0.215,IMU0,0.09228515625,3.869140625,0.13037109375,0.0,14.355742296918768,-9.873949579831933
0.225,IMU0,-0.244140625,3.6796875,0.1923828125,-2.380952380952381,10.854341736694678,-9.593837535014005
0.235,IMU0,0.01025390625,3.80126953125,0.107421875,3.8515406162464987,14.705882352941178,-3.991596638655462
0.245,IMU0,0.12255859375,3.865234375,0.09521484375,0.6302521008403361,-9.033613445378151,5.9523809523809526
0.255,IMU0,0.1826171875,3.81103515625,0.02880859375,4.061624649859944,0.7703081232492998,0.6302521008403361
0.265,IMU0,0.1611328125,3.76513671875,-0.06005859375,1.9607843137254903,-10.644257703081234,0.8403361344537815
0.275,IMU0,0.15673828125,3.74365234375,-0.009765625,0.7703081232492998,-3.641456582633053,-2.030812324929972
0.285,IMU0,0.14208984375,3.76708984375,0.001953125,-1.400560224089636,-7.212885154061625,-3.711484593837535
0.295,IMU0,0.0986328125,3.92724609375,0.0703125,-3.9215686274509807,-7.563025210084034,-4.481792717086835
0.305,IMU0,0.11279296875,3.8095703125,0.12890625,-3.081232492997199,-4.69187675070028,-3.431372549019608
0.315,IMU0,0.15283203125,3.90869140625,0.16552734375,-1.2605042016806722,-6.512605042016807,-3.991596638655462
0.325,IMU0,0.79541015625,3.73876953125,0.5986328125,-3.781512605042017,-18.137254901960784,4.131652661064426
0.335,IMU0,0.5009765625,3.6796875,0.5146484375,2.030812324929972,0.7703081232492998,-11.484593837535014
0.345,IMU0,0.08349609375,3.89208984375,0.265625,15.056022408963585,-11.27450980392157,-25.630252100840337
0.355,IMU0,-0.1416015625,3.83349609375,0.05517578125,16.03641456582633,-15.616246498599441,-26.5406162464986
0.365,IMU0,-0.54736328125,3.59912109375,-0.37744140625,10.364145658263306,-36.97478991596639,-7.002801120448179
0.375,IMU0,0.31591796875,3.716796875,-0.24072265625,3.081232492997199,-20.308123249299722,10.434173669467787
0.385,IMU0,0.48876953125,3.71728515625,0.11474609375,-6.162464985994398,-27.941176470588236,12.394957983193278
0.395,IMU0,0.4716796875,3.64794921875,0.1572265625,-3.711484593837535,-24.089635854341736,-7.212885154061625
0.405,IMU0,0.06494140625,3.65869140625,0.0517578125,-2.2408963585434174,2.170868347338936,-13.095238095238097
0.415,IMU0,-0.18359375,3.65380859375,-0.06201171875,-2.5210084033613445,26.610644257703083,-15.406162464985995
0.425,IMU0,-0.1376953125,3.6630859375,0.11181640625,-5.182072829131653,39.77591036414566,-2.73109243697479
0.435,IMU0,-0.14794921875,3.59765625,0.06396484375,-5.392156862745098,33.82352941176471,2.5210084033613445
0.445,IMU0,-0.09814453125,3.4951171875,-0.07373046875,1.400560224089636,47.89915966386555,-1.8207282913165266
0.455,IMU0,0.08935546875,3.4140625,-0.1796875,-3.8515406162464987,41.38655462184874,8.403361344537815
0.465,IMU0,0.6318359375,3.42333984375,0.302734375,-10.364145658263306,32.212885154061624,14.705882352941178
0.475,IMU0,0.7958984375,3.25634765625,0.537109375,-3.9215686274509807,32.28291316526611,4.481792717086835
0.485,IMU0,-0.02099609375,3.55615234375,0.12451171875,11.414565826330533,21.498599439775912,-23.949579831932773
0.495,IMU0,-0.23583984375,3.458984375,-0.2421875,7.212885154061625,-2.73109243697479,-13.725490196078432
0.505,IMU0,0.0244140625,3.52783203125,-0.2333984375,1.3305322128851542,5.602240896358544,2.801120448179272
0.515,IMU0,0.18212890625,3.61767578125,0.18896484375,-5.742296918767507,9.033613445378151,2.3109243697478994
0.525,IMU0,0.1826171875,3.642578125,0.20703125,-2.8711484593837535,5.742296918767507,-2.030812324929972
0.535,IMU0,0.18896484375,3.64892578125,0.1982421875,0.9103641456582633,-8.683473389355743,-0.9103641456582633
0.545,IMU0,-0.0029296875,3.6953125,0.02587890625,2.8711484593837535,-8.123249299719888,-8.823529411764707
0.555,IMU0,-0.11474609375,3.72412109375,0.04443359375,0.0700280112044818,-10.434173669467787,-6.23249299719888
0.565,IMU0,0.07568359375,3.69189453125,0.09521484375,-0.2801120448179272,-9.313725490196079,1.680672268907563
0.575,IMU0,0.0458984375,3.6923828125,0.08642578125,2.030812324929972,-7.633053221288516,-4.971988795518207
0.585,IMU0,-0.02880859375,3.72021484375,0.07421875,1.8907563025210086,-8.473389355742297,-5.6722689075630255
0.595,IMU0,0.05810546875,3.7021484375,0.095703125,1.400560224089636,-9.73389355742297,-0.6302521008403361
0.605,IMU0,0.03271484375,3.7080078125,0.08154296875,2.3109243697478994,-9.73389355742297,-4.201680672268908
0.615,IMU0,-0.02490234375,3.716796875,0.07568359375,2.73109243697479,-10.784313725490197,-4.69187675070028
0.625,IMU0,0.041015625,3.7001953125,0.07568359375,2.380952380952381,-11.974789915966387,-1.4705882352941178
0.635,IMU0,0.02587890625,3.7119140625,0.08642578125,2.5210084033613445,-13.095238095238097,-4.061624649859944
0.645,IMU0,-0.0078125,3.71484375,0.0732421875,3.2913165266106446,-14.285714285714286,-3.9215686274509807
0.655,IMU0,0.04443359375,3.70556640625,0.083984375,3.081232492997199,-16.106442577030812,-1.4705882352941178
0.665,IMU0,0.02734375,3.71337890625,0.0927734375,3.711484593837535,-16.876750700280112,-3.641456582633053
0.675,IMU0,0.00048828125,3.7158203125,0.07177734375,4.271708683473389,-18.137254901960784,-3.641456582633053
0.685,IMU0,0.0341796875,3.708984375,0.09375,3.711484593837535,-20.168067226890756,-1.680672268907563
0.695,IMU0,0.01806640625,3.7158203125,0.08935546875,4.761904761904762,-20.798319327731093,-3.361344537815126
0.705,IMU0,0.00537109375,3.71875,0.07470703125,5.182072829131653,-22.058823529411764,-3.011204481792717
0.715,IMU0,0.0380859375,3.712890625,0.0810546875,4.901960784313726,-23.669467787114847,-1.6106442577030813
0.725,IMU0,0.02197265625,3.7119140625,0.08544921875,5.5322128851540615,-24.369747899159666,-2.9411764705882355
0.735,IMU0,0.01708984375,3.720703125,0.07177734375,5.882352941176471,-25.0,-2.5210084033613445
0.745,IMU0,0.0380859375,3.71875,0.08642578125,5.392156862745098,-26.330532212885156,-1.8907563025210086
0.755,IMU0,0.01806640625,3.72119140625,0.08837890625,6.162464985994398,-27.100840336134453,-2.9411764705882355
0.765,IMU0,0.0166015625,3.71533203125,0.08056640625,6.442577030812325,-28.571428571428573,-2.170868347338936
0.775,IMU0,0.03369140625,3.708984375,0.08984375,6.442577030812325,-30.672268907563026,-1.6106442577030813
0.785,IMU0,0.01416015625,3.71240234375,0.0830078125,7.072829131652662,-32.07282913165266,-2.380952380952381
0.795,IMU0,0.0185546875,3.71142578125,0.076171875,7.072829131652662,-33.61344537815126,-1.5406162464985995
0.805,IMU0,0.01611328125,3.705078125,0.08349609375,7.352941176470589,-37.11484593837535,-1.8207282913165266
0.815,IMU0,0.01708984375,3.7041015625,0.07861328125,7.282913165266106,-39.075630252100844,-0.9803921568627452
0.825,IMU0,0.02783203125,3.69873046875,0.08984375,7.282913165266106,-41.38655462184874,-0.8403361344537815
0.835,IMU0,0.01220703125,3.7060546875,0.08203125,7.773109243697479,-43.207282913165265,-1.1904761904761905
0.845,IMU0,0.0205078125,3.70703125,0.08544921875,7.492997198879552,-45.79831932773109,-0.2801120448179272
0.855,IMU0,0.02685546875,3.6982421875,0.09619140625,7.633053221288516,-48.319327731092436,-0.21008403361344538
0.865,IMU0,0.01513671875,3.69970703125,0.080078125,8.123249299719888,-50.0,-0.42016806722689076
0.875,IMU0,0.02099609375,3.70166015625,0.09033203125,7.633053221288516,-52.450980392156865,0.2801120448179272
0.885,IMU0,0.02001953125,3.69677734375,0.09423828125,7.703081232492997,-54.55182072829132,0.2801120448179272
0.895,IMU0,0.013671875,3.70751953125,0.080078125,7.913165266106443,-56.372549019607845,0.2801120448179272
0.905,IMU0,0.017578125,3.7041015625,0.08984375,7.42296918767507,-58.61344537815126,0.9103641456582633
0.915,IMU0,0.017578125,3.7080078125,0.09130859375,7.492997198879552,-60.64425770308124,0.8403361344537815
0.925,IMU0,0.01953125,3.708984375,0.08837890625,7.42296918767507,-61.97478991596639,0.9803921568627452
0.935,IMU0,0.02490234375,3.701171875,0.099609375,6.932773109243698,-64.14565826330532,1.3305322128851542
0.945,IMU0,0.021484375,3.69775390625,0.09423828125,7.072829131652662,-66.31652661064426,1.1204481792717087
0.955,IMU0,0.017578125,3.7041015625,0.08251953125,6.652661064425771,-68.62745098039215,1.3305322128851542
0.965,IMU0,0.03076171875,3.701171875,0.09521484375,6.23249299719888,-71.35854341736695,1.680672268907563
0.975,IMU0,0.0224609375,3.7080078125,0.07958984375,6.23249299719888,-73.17927170868347,1.400560224089636
0.985,IMU0,0.0205078125,3.7119140625,0.0927734375,5.602240896358544,-76.19047619047619,1.8207282913165266
0.995,IMU0,0.02197265625,3.708984375,0.0986328125,5.182072829131653,-79.06162464985995,2.100840336134454
1.005,IMU0,0.02099609375,3.71435546875,0.09765625,5.392156862745098,-81.72268907563026,1.8907563025210086
1.015,IMU0,0.02294921875,3.71923828125,0.08837890625,4.901960784313726,-84.87394957983193,2.380952380952381
1.025,IMU0,0.02587890625,3.716796875,0.09130859375,4.621848739495799,-87.60504201680672,2.5910364145658265
1.035,IMU0,0.017578125,3.71240234375,0.0869140625,4.481792717086835,-90.26610644257704,2.380952380952381
1.045,IMU0,0.0185546875,3.7060546875,0.0947265625,3.781512605042017,-93.41736694677871,2.9411764705882355
1.055,IMU0,0.02294921875,3.70556640625,0.10400390625,3.711484593837535,-96.42857142857143,3.2913165266106446
1.065,IMU0,0.015625,3.7080078125,0.09619140625,3.8515406162464987,-99.85994397759104,3.151260504201681
1.075,IMU0,0.01904296875,3.70361328125,0.09619140625,3.5014005602240896,-103.43137254901961,3.711484593837535
1.085,IMU0,0.02392578125,3.71044921875,0.10400390625,3.361344537815126,-106.9327731092437,3.8515406162464987
1.095,IMU0,0.01318359375,3.7197265625,0.09814453125,3.361344537815126,-110.85434173669468,3.781512605042017
1.105,IMU0,0.01220703125,3.724609375,0.10107421875,3.151260504201681,-114.98599439775911,4.411764705882353
1.115,IMU0,0.01123046875,3.720703125,0.1025390625,3.081232492997199,-121.84873949579833,4.481792717086835
1.125,IMU0,0.01513671875,3.72119140625,0.09912109375,3.081232492997199,-125.56022408963587,5.042016806722689
1.135,IMU0,0.01611328125,3.724609375,0.10205078125,2.9411764705882355,-129.34173669467788,4.901960784313726
1.145,IMU0,0.0126953125,3.7197265625,0.115234375,3.2212885154061626,-133.0532212885154,5.042016806722689
1.155,IMU0,0.0146484375,3.72021484375,0.1064453125,3.2212885154061626,-136.1344537815126,5.46218487394958
1.165,IMU0,0.013671875,3.72705078125,0.12158203125,3.081232492997199,-138.8655462184874,5.2521008403361344
1.175,IMU0,0.005859375,3.73583984375,0.0947265625,3.5014005602240896,-142.22689075630254,5.182072829131653
1.185,IMU0,0.01806640625,3.73779296875,0.091796875,2.450980392156863,-145.51820728291318,5.8123249299719895
1.195,IMU0,0.01806640625,3.73046875,0.10107421875,1.7507002801120448,-148.59943977591038,5.392156862745098
1.205,IMU0,0.009765625,3.73779296875,0.087890625,3.8515406162464987,-151.68067226890756,5.042016806722689
1.215,IMU0,0.0234375,3.736328125,0.1123046875,6.932773109243698,-156.79271708683473,5.2521008403361344
1.225,IMU0,0.0302734375,3.72900390625,0.10986328125,7.633053221288516,-159.733893557423,5.042016806722689
1.235,IMU0,0.02978515625,3.72900390625,0.11083984375,4.761904761904762,-162.88515406162466,4.971988795518207
1.245,IMU0,0.02880859375,3.73046875,0.12060546875,-0.0700280112044818,-167.296918767507,5.46218487394958
1.255,IMU0,0.037109375,3.73876953125,0.1201171875,-3.9215686274509807,-173.52941176470588,5.602240896358544
1.265,IMU0,0.03515625,3.73828125,0.1005859375,-3.361344537815126,-178.64145658263305,5.6722689075630255
1.275,IMU0,0.0419921875,3.74169921875,0.12255859375,-0.350140056022409,-184.80392156862746,6.022408963585434
1.285,IMU0,0.041015625,3.7548828125,0.12841796875,3.711484593837535,-191.80672268907563,5.5322128851540615
1.295,IMU0,0.0302734375,3.765625,0.13720703125,6.932773109243698,-198.59943977591038,5.9523809523809526
1.305,IMU0,0.05224609375,3.76318359375,0.1064453125,6.0924369747899165,-203.71148459383755,6.932773109243698
1.315,IMU0,0.03466796875,3.76904296875,0.134765625,0.7703081232492998,-210.8543417366947,6.722689075630252
1.325,IMU0,0.02294921875,3.76806640625,0.12158203125,-2.8711484593837535,-215.61624649859945,7.983193277310924
1.335,IMU0,0.03369140625,3.77099609375,0.10888671875,-5.46218487394958,-221.49859943977592,8.893557422969188
1.345,IMU0,0.00830078125,3.78076171875,0.12939453125,-4.341736694677872,-226.82072829131653,8.823529411764707
1.355,IMU0,0.03271484375,3.7734375,0.09814453125,0.9803921568627452,-231.1624649859944,9.663865546218489
1.365,IMU0,0.02685546875,3.7763671875,0.0966796875,4.831932773109244,-236.48459383753502,9.453781512605042
1.375,IMU0,0.013671875,3.775390625,0.1298828125,6.162464985994398,-239.56582633053222,9.873949579831933
1.385,IMU0,0.0126953125,3.77099609375,0.09326171875,5.322128851540617,-239.49579831932775,10.294117647058824
1.395,IMU0,0.01513671875,3.76953125,0.1044921875,0.42016806722689076,-240.68627450980392,10.994397759103641
1.405,IMU0,0.017578125,3.76904296875,0.09130859375,-2.9411764705882355,-240.61624649859945,11.484593837535014
1.415,IMU0,0.02734375,3.7724609375,0.1015625,-0.1400560224089636,-241.5966386554622,11.414565826330533
1.425,IMU0,0.01513671875,3.77099609375,0.109375,2.6610644257703084,-242.7170868347339,11.344537815126051
1.435,IMU0,0.01416015625,3.77294921875,0.1044921875,3.781512605042017,-244.04761904761907,11.554621848739496
1.445,IMU0,0.01611328125,3.7763671875,0.1083984375,4.061624649859944,-244.7478991596639,11.834733893557424
1.455,IMU0,0.01611328125,3.7744140625,0.10498046875,4.901960784313726,-245.65826330532215,11.554621848739496
1.465,IMU0,0.0078125,3.78076171875,0.10791015625,5.322128851540617,-247.05882352941177,11.414565826330533
1.475,IMU0,0.01708984375,3.7822265625,0.09326171875,7.633053221288516,-248.59943977591038,11.27450980392157
1.485,IMU0,0.009765625,3.78466796875,0.10302734375,11.764705882352942,-250.0700280112045,10.644257703081234
1.495,IMU0,0.00927734375,3.787109375,0.1015625,10.504201680672269,-250.98039215686276,10.364145658263306
1.505,IMU0,0.00830078125,3.78662109375,0.10400390625,6.442577030812325,-252.17086834733894,10.294117647058824
1.515,IMU0,0.00537109375,3.78759765625,0.1044921875,2.73109243697479,-253.0812324929972,10.084033613445378
1.525,IMU0,0.00048828125,3.7900390625,0.09619140625,1.6106442577030813,-254.34173669467788,9.523809523809524
1.535,IMU0,0.00439453125,3.7919921875,0.1025390625,4.271708683473389,-255.95238095238096,9.38375350140056
1.545,IMU0,0.01171875,3.7900390625,0.1005859375,8.333333333333334,-257.843137254902,8.683473389355743
1.555,IMU0,-0.00830078125,3.7978515625,0.11083984375,8.19327731092437,-259.593837535014,7.913165266106443
1.565,IMU0,0.01025390625,3.7900390625,0.12451171875,8.403361344537815,-261.5546218487395,7.983193277310924
1.575,IMU0,0.0146484375,3.7939453125,0.107421875,8.753501400560225,-262.46498599439775,6.792717086834735
1.585,IMU0,0.00732421875,3.78857421875,0.107421875,8.473389355742297,-264.6358543417367,6.23249299719888
1.595,IMU0,0.0107421875,3.78662109375,0.11767578125,8.19327731092437,-266.6666666666667,5.882352941176471
1.605,IMU0,0.00439453125,3.7822265625,0.119140625,8.123249299719888,-267.92717086834733,4.971988795518207
1.615,IMU0,0.0107421875,3.7724609375,0.130859375,8.473389355742297,-269.6778711484594,4.621848739495799
1.625,IMU0,0.013671875,3.76513671875,0.1083984375,10.854341736694678,-270.86834733893556,3.711484593837535
1.635,IMU0,0.00927734375,3.7685546875,0.12109375,6.512605042016807,-272.2689075630252,3.151260504201681
1.645,IMU0,0.01416015625,3.77490234375,0.13134765625,2.2408963585434174,-273.249299719888,2.9411764705882355
1.655,IMU0,0.01904296875,3.7763671875,0.1240234375,0.9803921568627452,-274.2997198879552,2.3109243697478994
1.665,IMU0,0.01611328125,3.77880859375,0.13916015625,3.2913165266106446,-276.05042016806726,1.680672268907563
1.675,IMU0,0.01953125,3.775390625,0.125,7.492997198879552,-277.66106442577035,1.2605042016806722
1.685,IMU0,0.01416015625,3.77490234375,0.13525390625,10.364145658263306,-280.0420168067227,0.700280112044818
1.695,IMU0,0.01806640625,3.76953125,0.1318359375,6.512605042016807,-280.812324929972,0.700280112044818
1.705,IMU0,0.0078125,3.76416015625,0.12890625,4.341736694677872,-282.07282913165267,0.5602240896358543
1.715,IMU0,-0.00048828125,3.76708984375,0.13818359375,3.641456582633053,-283.61344537815125,0.1400560224089636
1.725,IMU0,0.0068359375,3.7685546875,0.1318359375,3.361344537815126,-284.24369747899163,0.4901960784313726
1.735,IMU0,0.01904296875,3.7626953125,0.12451171875,2.380952380952381,-285.36414565826334,0.1400560224089636
1.745,IMU0,0.0224609375,3.75927734375,0.12451171875,1.680672268907563,-286.2044817927171,-0.4901960784313726
1.755,IMU0,0.01806640625,3.7529296875,0.1376953125,0.0,-289.7058823529412,-0.42016806722689076
1.765,IMU0,0.017578125,3.7548828125,0.1318359375,-3.5014005602240896,-289.6358543417367,-0.42016806722689076
1.775,IMU0,0.03369140625,3.7529296875,0.126953125,-5.8123249299719895,-290.0560224089636,0.21008403361344538
1.785,IMU0,0.02880859375,3.75390625,0.1376953125,-4.69187675070028,-290.8263305322129,-0.350140056022409
1.795,IMU0,0.0244140625,3.75146484375,0.12646484375,0.0700280112044818,-291.6666666666667,-0.1400560224089636
1.805,IMU0,0.0322265625,3.74560546875,0.11328125,3.8515406162464987,-293.1372549019608,0.21008403361344538
1.815,IMU0,0.02392578125,3.7451171875,0.12744140625,4.831932773109244,-294.88795518207286,0.1400560224089636
1.825,IMU0,0.0205078125,3.73095703125,0.10791015625,2.380952380952381,-295.0980392156863,0.7703081232492998
1.835,IMU0,0.0302734375,3.72119140625,0.1201171875,-0.7703081232492998,-295.86834733893556,1.680672268907563
1.845,IMU0,0.02734375,3.716796875,0.12109375,-0.2801120448179272,-296.42857142857144,1.8207282913165266
1.855,IMU0,0.01904296875,3.70703125,0.1064453125,0.0700280112044818,-296.7787114845938,2.2408963585434174
1.865,IMU0,0.0263671875,3.69677734375,0.1162109375,0.0700280112044818,-297.61904761904765,2.9411764705882355
1.875,IMU0,0.017578125,3.6953125,0.10888671875,0.4901960784313726,-298.4593837535014,2.8711484593837535
1.885,IMU0,0.017578125,3.68505859375,0.11669921875,1.2605042016806722,-298.8795518207283,3.2913165266106446
1.895,IMU0,0.0234375,3.6796875,0.11328125,1.680672268907563,-299.5798319327731,3.431372549019608
1.905,IMU0,0.02099609375,3.67578125,0.11181640625,2.170868347338936,-300.0700280112045,3.2212885154061626
1.915,IMU0,0.01611328125,3.67529296875,0.1044921875,2.8711484593837535,-300.98039215686276,3.431372549019608
1.925,IMU0,0.01025390625,3.66845703125,0.1044921875,3.081232492997199,-301.8207282913165,3.431372549019608
1.935,IMU0,0.01416015625,3.66455078125,0.109375,3.9215686274509807,-302.10084033613447,3.2212885154061626
1.945,IMU0,0.01416015625,3.66064453125,0.10791015625,4.551820728291316,-302.03081232492997,3.011204481792717
1.955,IMU0,0.0078125,3.650390625,0.11669921875,4.971988795518207,-302.3809523809524,2.6610644257703084
1.965,IMU0,-0.001953125,3.63623046875,0.11083984375,5.8123249299719895,-302.3109243697479,2.450980392156863
1.975,IMU0,0.01171875,3.62890625,0.1025390625,6.162464985994398,-302.7310924369748,2.3109243697478994
1.985,IMU0,0.01220703125,3.619140625,0.1162109375,6.0924369747899165,-303.2212885154062,1.5406162464985995
1.995,IMU0,0.00390625,3.6123046875,0.115234375,6.652661064425771,-304.2717086834734,0.7703081232492998
2.005,IMU0,0.0078125,3.6015625,0.1025390625,6.722689075630252,-305.0420168067227,0.350140056022409
2.015,IMU0,0.015625,3.5869140625,0.12451171875,6.862745098039216,-306.44257703081234,-0.1400560224089636
2.025,IMU0,0.0078125,3.5888671875,0.1123046875,7.282913165266106,-306.8627450980392,-1.1204481792717087
2.035,IMU0,-0.0029296875,3.5830078125,0.11767578125,7.142857142857143,-307.49299719887955,-1.400560224089636
2.045,IMU0,0.00048828125,3.58056640625,0.11669921875,7.142857142857143,-308.33333333333337,-1.680672268907563
2.055,IMU0,0.0078125,3.5712890625,0.123046875,6.792717086834735,-309.24369747899163,-2.380952380952381
2.065,IMU0,0.02197265625,3.5400390625,0.134765625,6.372549019607844,-311.2745098039216,-4.271708683473389
2.075,IMU0,0.0205078125,3.5263671875,0.14306640625,5.882352941176471,-312.46498599439775,-4.69187675070028
2.085,IMU0,0.017578125,3.51123046875,0.107421875,5.112044817927171,-312.8851540616247,-4.761904761904762
2.095,IMU0,0.00390625,3.5,0.123046875,3.8515406162464987,-314.2857142857143,-4.831932773109244
2.105,IMU0,0.01123046875,3.49853515625,0.14208984375,3.2212885154061626,-314.77591036414566,-4.481792717086835
2.115,IMU0,0.01953125,3.49609375,0.12451171875,3.151260504201681,-314.77591036414566,-4.551820728291316
2.125,IMU0,0.0205078125,3.4970703125,0.140625,2.3109243697478994,-315.406162464986,-4.901960784313726
2.135,IMU0,0.025390625,3.4892578125,0.1220703125,1.400560224089636,-316.31652661064425,-4.621848739495799
2.145,IMU0,0.0205078125,3.47509765625,0.146484375,0.6302521008403361,-318.1372549019608,-4.69187675070028
2.155,IMU0,0.0126953125,3.4658203125,0.12451171875,-0.0700280112044818,-319.18767507002804,-4.411764705882353
2.165,IMU0,0.02392578125,3.45654296875,0.11474609375,-0.8403361344537815,-319.9579831932773,-3.641456582633053
2.175,IMU0,0.02685546875,3.44580078125,0.142578125,-1.8207282913165266,-321.7086834733894,-3.641456582633053
2.185,IMU0,0.0205078125,3.443359375,0.126953125,-2.030812324929972,-322.4089635854342,-3.641456582633053
2.195,IMU0,0.01953125,3.42724609375,0.12744140625,-1.9607843137254903,-323.59943977591035,-2.9411764705882355
2.205,IMU0,0.02685546875,3.4228515625,0.12890625,-2.801120448179272,-324.71988795518206,-2.5910364145658265
2.215,IMU0,0.0341796875,3.40771484375,0.1064453125,-2.8711484593837535,-325.35014005602244,-2.380952380952381
2.225,IMU0,0.03173828125,3.39013671875,0.1279296875,-3.2913165266106446,-327.3809523809524,-2.030812324929972
2.235,IMU0,0.0263671875,3.380859375,0.11572265625,-3.2913165266106446,-327.66106442577035,-1.4705882352941178
2.245,IMU0,0.02734375,3.37451171875,0.10693359375,-3.011204481792717,-328.5014005602241,-0.9103641456582633
2.255,IMU0,0.02197265625,3.37060546875,0.11328125,-3.2913165266106446,-329.2717086834734,-0.5602240896358543
2.265,IMU0,0.02099609375,3.35400390625,0.11572265625,-2.5910364145658265,-329.5518207282913,0.21008403361344538
2.275,IMU0,0.0322265625,3.3427734375,0.09619140625,-2.170868347338936,-329.76190476190476,0.4901960784313726
2.285,IMU0,0.01904296875,3.3427734375,0.1015625,-2.100840336134454,-330.18207282913164,0.6302521008403361
2.295,IMU0,0.0185546875,3.3349609375,0.1123046875,-1.3305322128851542,-330.88235294117646,1.050420168067227
2.305,IMU0,0.015625,3.32861328125,0.09716796875,-0.8403361344537815,-330.7422969187675,1.1204481792717087
2.315,IMU0,0.015625,3.3173828125,0.10693359375,-0.1400560224089636,-330.672268907563,0.9803921568627452
2.325,IMU0,0.00732421875,3.30810546875,0.08740234375,0.6302521008403361,-330.672268907563,0.9803921568627452
2.335,IMU0,0.00634765625,3.2939453125,0.1044921875,0.6302521008403361,-331.1624649859944,0.9103641456582633
2.345,IMU0,0.00830078125,3.28466796875,0.09716796875,1.680672268907563,-330.672268907563,0.42016806722689076
2.355,IMU0,0.0107421875,3.275390625,0.09423828125,2.170868347338936,-331.2324929971989,-0.350140056022409
2.365,IMU0,0.01025390625,3.26708984375,0.10498046875,2.030812324929972,-332.21288515406167,-0.9803921568627452
2.375,IMU0,0.01123046875,3.259765625,0.099609375,2.801120448179272,-332.56302521008405,-1.680672268907563
2.385,IMU0,0.01025390625,3.24169921875,0.11279296875,2.5210084033613445,-334.24369747899163,-2.9411764705882355
2.395,IMU0,0.00244140625,3.2451171875,0.10009765625,3.081232492997199,-334.73389355742296,-3.8515406162464987
2.405,IMU0,0.00927734375,3.23291015625,0.1015625,2.6610644257703084,-335.4341736694678,-4.341736694677872
2.415,IMU0,0.01025390625,3.2177734375,0.115234375,2.5210084033613445,-336.34453781512605,-4.69187675070028
2.425,IMU0,0.00390625,3.21240234375,0.09912109375,2.5210084033613445,-336.9747899159664,-5.742296918767507
2.435,IMU0,0.001953125,3.20458984375,0.10693359375,1.6106442577030813,-338.1652661064426,-5.742296918767507
2.445,IMU0,0.02197265625,3.1962890625,0.11767578125,1.3305322128851542,-338.58543417366946,-6.23249299719888
2.455,IMU0,0.01416015625,3.193359375,0.08984375,1.1204481792717087,-338.72549019607845,-7.352941176470589
2.465,IMU0,0.0126953125,3.18603515625,0.1044921875,0.21008403361344538,-340.546218487395,-7.282913165266106
2.475,IMU0,0.0234375,3.17919921875,0.10205078125,-0.42016806722689076,-340.96638655462186,-7.282913165266106
2.485,IMU0,0.0205078125,3.1669921875,0.08935546875,-0.7703081232492998,-341.2464985994398,-7.773109243697479
2.495,IMU0,0.01611328125,3.16650390625,0.09765625,-1.3305322128851542,-341.52661064425774,-7.492997198879552
2.505,IMU0,0.021484375,3.16162109375,0.1015625,-1.3305322128851542,-341.1764705882353,-7.142857142857143
2.515,IMU0,0.02197265625,3.154296875,0.09033203125,-1.4705882352941178,-340.89635854341736,-7.072829131652662
2.525,IMU0,0.0205078125,3.14453125,0.09228515625,-1.8207282913165266,-340.89635854341736,-6.652661064425771
2.535,IMU0,0.02587890625,3.1337890625,0.09033203125,-1.8907563025210086,-340.6862745098039,-6.302521008403362
2.545,IMU0,0.02978515625,3.12158203125,0.0869140625,-1.8207282913165266,-340.26610644257704,-6.0924369747899165
2.555,IMU0,0.02685546875,3.10986328125,0.0888671875,-1.680672268907563,-339.77591036414566,-5.742296918767507
2.565,IMU0,0.02978515625,3.1103515625,0.08349609375,-1.400560224089636,-338.8655462184874,-5.2521008403361344
2.575,IMU0,0.02490234375,3.09814453125,0.08203125,-1.1204481792717087,-338.2352941176471,-5.042016806722689
2.585,IMU0,0.029296875,3.09228515625,0.080078125,-0.6302521008403361,-336.9047619047619,-4.621848739495799
2.595,IMU0,0.03564453125,3.08935546875,0.078125,-0.4901960784313726,-335.6442577030812,-4.271708683473389
2.605,IMU0,0.03515625,3.08447265625,0.0732421875,0.0700280112044818,-334.5238095238095,-4.131652661064426
2.615,IMU0,0.0322265625,3.07861328125,0.0810546875,0.5602240896358543,-332.98319327731093,-3.8515406162464987
2.625,IMU0,0.02978515625,3.076171875,0.06591796875,1.1204481792717087,-331.3025210084034,-3.5014005602240896
2.635,IMU0,0.03271484375,3.0654296875,0.06982421875,1.7507002801120448,-330.5322128851541,-3.2913165266106446
2.645,IMU0,0.0322265625,3.0576171875,0.07080078125,2.380952380952381,-329.13165266106444,-3.2913165266106446
2.655,IMU0,0.02880859375,3.05078125,0.06591796875,2.9411764705882355,-327.7310924369748,-3.431372549019608
2.665,IMU0,0.02978515625,3.0458984375,0.06689453125,3.711484593837535,-326.1904761904762,-3.431372549019608
2.675,IMU0,0.0322265625,3.03857421875,0.06884765625,4.341736694677872,-325.0700280112045,-3.641456582633053
2.685,IMU0,0.03076171875,3.0283203125,0.06591796875,4.761904761904762,-323.8795518207283,-3.991596638655462
2.695,IMU0,0.0322265625,3.015625,0.06201171875,5.182072829131653,-322.54901960784315,-4.271708683473389
2.705,IMU0,0.0341796875,3.0166015625,0.06591796875,5.5322128851540615,-321.2885154061625,-5.322128851540617
2.715,IMU0,0.0361328125,3.0107421875,0.07568359375,5.9523809523809526,-320.7983193277311,-5.602240896358544
2.725,IMU0,0.03564453125,2.9990234375,0.06298828125,6.302521008403362,-320.1680672268908,-6.23249299719888
2.735,IMU0,0.03515625,2.9873046875,0.06640625,6.022408963585434,-319.9579831932773,-6.722689075630252
2.745,IMU0,0.04150390625,2.9814453125,0.06591796875,6.162464985994398,-319.467787114846,-7.142857142857143
2.755,IMU0,0.03955078125,2.9755859375,0.06787109375,6.0924369747899165,-318.4873949579832,-7.703081232492997
2.765,IMU0,0.04150390625,2.97412109375,0.06982421875,6.23249299719888,-317.8571428571429,-7.913165266106443
2.775,IMU0,0.0478515625,2.96435546875,0.068359375,6.302521008403362,-317.08683473389357,-8.263305322128852
2.785,IMU0,0.04248046875,2.9697265625,0.0693359375,6.162464985994398,-316.5966386554622,-8.753501400560225
2.795,IMU0,0.04931640625,2.96484375,0.06982421875,6.022408963585434,-315.6862745098039,-8.61344537815126
2.805,IMU0,0.0478515625,2.95361328125,0.06884765625,5.6722689075630255,-315.19607843137254,-8.61344537815126
2.815,IMU0,0.0400390625,2.9541015625,0.07275390625,5.742296918767507,-314.4957983193277,-8.683473389355743
2.825,IMU0,0.044921875,2.94091796875,0.0673828125,5.9523809523809526,-313.79551820728295,-8.263305322128852
2.835,IMU0,0.048828125,2.943359375,0.06591796875,5.5322128851540615,-313.2352941176471,-8.403361344537815
2.845,IMU0,0.044921875,2.9306640625,0.0693359375,5.6722689075630255,-312.8151260504202,-8.263305322128852
2.855,IMU0,0.04443359375,2.91650390625,0.06494140625,5.5322128851540615,-311.8347338935574,-8.263305322128852
2.865,IMU0,0.04833984375,2.91259765625,0.07275390625,5.322128851540617,-311.41456582633054,-8.123249299719888
2.875,IMU0,0.05419921875,2.90478515625,0.06298828125,5.6722689075630255,-311.06442577030816,-8.19327731092437
2.885,IMU0,0.04736328125,2.90380859375,0.0654296875,5.5322128851540615,-310.5042016806723,-8.403361344537815
2.895,IMU0,0.0458984375,2.89501953125,0.072265625,5.742296918767507,-310.0140056022409,-7.983193277310924
2.905,IMU0,0.0498046875,2.88525390625,0.06494140625,6.022408963585434,-309.10364145658264,-7.773109243697479
2.915,IMU0,0.04248046875,2.8837890625,0.06640625,5.602240896358544,-308.68347338935575,-7.913165266106443
2.925,IMU0,0.0546875,2.875,0.0693359375,5.742296918767507,-307.7731092436975,-7.492997198879552
2.935,IMU0,0.05419921875,2.8671875,0.06494140625,6.022408963585434,-307.14285714285717,-7.773109243697479
2.945,IMU0,0.04443359375,2.8642578125,0.06982421875,5.8123249299719895,-306.51260504201684,-7.843137254901961
2.955,IMU0,0.052734375,2.8623046875,0.064453125,6.23249299719888,-305.672268907563,-7.42296918767507
2.965,IMU0,0.05322265625,2.8583984375,0.06689453125,6.302521008403362,-305.39215686274514,-7.773109243697479
2.975,IMU0,0.0498046875,2.85302734375,0.0693359375,6.442577030812325,-304.90196078431376,-7.773109243697479
2.985,IMU0,0.0556640625,2.8408203125,0.0654296875,6.512605042016807,-304.3417366946779,-7.563025210084034
2.995,IMU0,0.04833984375,2.837890625,0.0673828125,6.582633053221289,-303.921568627451,-7.843137254901961
3.005,IMU0,0.0478515625,2.83056640625,0.07080078125,6.932773109243698,-303.5714285714286,-7.563025210084034
3.015,IMU0,0.056640625,2.8095703125,0.06884765625,6.792717086834735,-302.52100840336135,-7.773109243697479
3.025,IMU0,0.04931640625,2.81005859375,0.06640625,6.932773109243698,-301.890756302521,-7.773109243697479
3.035,IMU0,0.05224609375,2.8095703125,0.06494140625,7.002801120448179,-301.6106442577031,-7.703081232492997
3.045,IMU0,0.05517578125,2.80859375,0.07373046875,6.582633053221289,-301.40056022408965,-7.773109243697479
3.055,IMU0,0.0498046875,2.80908203125,0.068359375,7.002801120448179,-300.7703081232493,-7.983193277310924
3.065,IMU0,0.056640625,2.79833984375,0.07080078125,7.072829131652662,-300.98039215686276,-7.843137254901961
3.075,IMU0,0.0576171875,2.78857421875,0.0771484375,7.072829131652662,-301.8207282913165,-7.983193277310924
3.085,IMU0,0.0498046875,2.783203125,0.06494140625,6.862745098039216,-302.3109243697479,-8.333333333333334
3.095,IMU0,0.06298828125,2.771484375,0.07373046875,6.722689075630252,-302.59103641456585,-8.053221288515406
3.105,IMU0,0.0654296875,2.76806640625,0.0771484375,6.512605042016807,-303.4313725490196,-8.19327731092437
3.115,IMU0,0.0546875,2.76953125,0.06640625,6.722689075630252,-303.2212885154062,-8.543417366946779
3.125,IMU0,0.05908203125,2.76220703125,0.0732421875,6.022408963585434,-303.64145658263305,-8.123249299719888
3.135,IMU0,0.06005859375,2.7568359375,0.0751953125,5.6722689075630255,-304.06162464985994,-8.19327731092437
3.145,IMU0,0.05712890625,2.75244140625,0.07568359375,5.392156862745098,-304.5518207282913,-8.123249299719888
3.155,IMU0,0.0625,2.7451171875,0.07275390625,4.901960784313726,-305.0420168067227,-7.703081232492997
3.165,IMU0,0.06298828125,2.73193359375,0.076171875,4.551820728291316,-305.5322128851541,-7.633053221288516
3.175,IMU0,0.06640625,2.73388671875,0.080078125,4.621848739495799,-305.95238095238096,-7.492997198879552
3.185,IMU0,0.06689453125,2.72998046875,0.07470703125,4.061624649859944,-305.88235294117646,-7.002801120448179
3.195,IMU0,0.06201171875,2.72265625,0.07373046875,3.431372549019608,-306.1624649859944,-6.722689075630252
3.205,IMU0,0.05908203125,2.71435546875,0.07275390625,3.2212885154061626,-306.1624649859944,-6.372549019607844
3.215,IMU0,0.060546875,2.71484375,0.07763671875,2.9411764705882355,-305.7422969187675,-5.8123249299719895
3.225,IMU0,0.05419921875,2.716796875,0.06640625,2.73109243697479,-305.4621848739496,-5.46218487394958
3.235,IMU0,0.07080078125,2.71728515625,0.07275390625,2.5910364145658265,-302.66106442577035,-4.831932773109244
3.245,IMU0,0.072265625,2.712890625,0.0966796875,1.7507002801120448,-302.94117647058823,-4.551820728291316
3.255,IMU0,0.06884765625,2.7080078125,0.0703125,2.170868347338936,-302.66106442577035,-4.341736694677872
3.265,IMU0,0.06689453125,2.70263671875,0.07861328125,1.5406162464985995,-303.01120448179273,-3.8515406162464987
3.275,IMU0,0.06640625,2.69580078125,0.0771484375,1.680672268907563,-302.8011204481793,-3.641456582633053
3.285,IMU0,0.0615234375,2.69091796875,0.0673828125,2.2408963585434174,-302.8711484593838,-3.711484593837535
3.295,IMU0,0.06103515625,2.6884765625,0.07763671875,1.7507002801120448,-303.71148459383755,-3.2212885154061626
3.305,IMU0,0.0625,2.6806640625,0.07080078125,2.030812324929972,-303.2913165266107,-3.081232492997199
3.315,IMU0,0.05810546875,2.67578125,0.0712890625,1.8207282913165266,-303.1512605042017,-3.431372549019608
3.325,IMU0,0.0595703125,2.66552734375,0.08447265625,1.6106442577030813,-303.5714285714286,-3.2212885154061626
3.335,IMU0,0.05615234375,2.662109375,0.0751953125,1.8207282913165266,-303.9915966386555,-3.991596638655462
3.345,IMU0,0.05908203125,2.65478515625,0.076171875,2.030812324929972,-304.06162464985994,-3.991596638655462
3.355,IMU0,0.0556640625,2.65380859375,0.0693359375,2.100840336134454,-303.921568627451,-4.621848739495799
3.365,IMU0,0.0546875,2.64990234375,0.07080078125,1.6106442577030813,-303.921568627451,-4.761904761904762
3.375,IMU0,0.064453125,2.63623046875,0.06884765625,1.680672268907563,-303.9915966386555,-4.971988795518207
3.385,IMU0,0.05615234375,2.63427734375,0.0732421875,1.4705882352941178,-304.6918767507003,-5.6722689075630255
3.395,IMU0,0.05615234375,2.63623046875,0.0751953125,1.400560224089636,-304.90196078431376,-5.6722689075630255
3.405,IMU0,0.06640625,2.6337890625,0.0703125,0.9103641456582633,-305.4621848739496,-5.8123249299719895
3.415,IMU0,0.05517578125,2.630859375,0.0712890625,0.4901960784313726,-306.0924369747899,-6.442577030812325
3.425,IMU0,0.0595703125,2.62646484375,0.07080078125,0.42016806722689076,-306.37254901960785,-6.302521008403362
3.435,IMU0,0.06396484375,2.61376953125,0.0712890625,0.6302521008403361,-306.51260504201684,-6.512605042016807
3.445,IMU0,0.06005859375,2.61279296875,0.06591796875,0.6302521008403361,-307.00280112044817,-6.722689075630252
3.455,IMU0,0.06298828125,2.6064453125,0.0673828125,0.21008403361344538,-307.56302521008405,-6.652661064425771
3.465,IMU0,0.06005859375,2.60107421875,0.06884765625,-0.0700280112044818,-307.56302521008405,-6.792717086834735
3.475,IMU0,0.05810546875,2.59912109375,0.06494140625,0.0,-307.4229691876751,-6.652661064425771
3.485,IMU0,0.06787109375,2.5947265625,0.06640625,-0.1400560224089636,-307.63305322128855,-6.372549019607844
3.495,IMU0,0.06640625,2.59619140625,0.06494140625,0.0700280112044818,-307.3529411764706,-6.512605042016807
3.505,IMU0,0.05810546875,2.5947265625,0.05908203125,0.0700280112044818,-307.21288515406167,-6.512605042016807
3.515,IMU0,0.0625,2.5908203125,0.05859375,0.1400560224089636,-307.14285714285717,-6.23249299719888
3.525,IMU0,0.06396484375,2.5849609375,0.064453125,0.350140056022409,-307.21288515406167,-6.442577030812325
3.535,IMU0,0.0615234375,2.57861328125,0.05419921875,1.1904761904761905,-306.7226890756303,-6.512605042016807
3.545,IMU0,0.06591796875,2.57373046875,0.05322265625,0.9103641456582633,-306.44257703081234,-6.372549019607844
3.555,IMU0,0.06103515625,2.56689453125,0.05419921875,1.1904761904761905,-306.1624649859944,-6.722689075630252
3.565,IMU0,0.0595703125,2.5634765625,0.052734375,1.9607843137254903,-305.672268907563,-7.002801120448179
3.575,IMU0,0.05908203125,2.5517578125,0.0517578125,2.2408963585434174,-305.4621848739496,-7.212885154061625
3.585,IMU0,0.0625,2.54150390625,0.05322265625,2.8711484593837535,-305.0420168067227,-7.492997198879552
3.595,IMU0,0.05908203125,2.53759765625,0.05029296875,3.711484593837535,-304.20168067226894,-8.123249299719888
3.605,IMU0,0.060546875,2.541015625,0.0537109375,3.991596638655462,-303.2913165266107,-8.683473389355743
3.615,IMU0,0.05810546875,2.54150390625,0.05029296875,4.201680672268908,-303.1512605042017,-8.96358543417367
3.625,IMU0,0.06298828125,2.537109375,0.05078125,3.991596638655462,-302.94117647058823,-9.663865546218489
3.635,IMU0,0.0634765625,2.53662109375,0.05078125,4.411764705882353,-302.3109243697479,-10.224089635854343
3.645,IMU0,0.087890625,2.55712890625,0.0185546875,5.882352941176471,-293.9075630252101,-10.224089635854343
3.655,IMU0,0.064453125,2.5478515625,0.08447265625,4.411764705882353,-295.23809523809524,-11.974789915966387
3.665,IMU0,0.06787109375,2.5458984375,0.0458984375,5.042016806722689,-295.23809523809524,-12.114845938375352
3.675,IMU0,0.09619140625,2.53759765625,0.05810546875,5.042016806722689,-296.00840336134456,-12.044817927170868
3.685,IMU0,0.0791015625,2.533203125,0.05517578125,4.761904761904762,-296.1484593837535,-13.23529411764706
3.695,IMU0,0.06884765625,2.52294921875,0.05859375,4.131652661064426,-295.4481792717087,-13.025210084033613
3.705,IMU0,0.08349609375,2.51416015625,0.04931640625,4.061624649859944,-296.35854341736695,-12.745098039215687
3.715,IMU0,0.078125,2.51416015625,0.05224609375,4.271708683473389,-297.6890756302521,-13.095238095238097
3.725,IMU0,0.0791015625,2.51708984375,0.05419921875,4.551820728291316,-296.98879551820727,-12.394957983193278
3.735,IMU0,0.08642578125,2.515625,0.04833984375,3.151260504201681,-296.218487394958,-11.904761904761905
3.745,IMU0,0.0869140625,2.515625,0.05712890625,2.6610644257703084,-296.5686274509804,-11.904761904761905
3.755,IMU0,0.09326171875,2.50390625,0.048828125,3.2212885154061626,-297.47899159663865,-10.994397759103641
3.765,IMU0,0.09619140625,2.50830078125,0.0537109375,2.5210084033613445,-296.7086834733894,-10.504201680672269
3.775,IMU0,0.09521484375,2.50927734375,0.05712890625,2.030812324929972,-296.218487394958,-10.014005602240896
3.785,IMU0,0.095703125,2.49951171875,0.04833984375,2.5210084033613445,-296.2885154061625,-9.243697478991598
3.795,IMU0,0.091796875,2.5,0.05078125,2.100840336134454,-296.8487394957983,-8.61344537815126
3.805,IMU0,0.0927734375,2.49755859375,0.04833984375,2.5910364145658265,-296.00840336134456,-7.703081232492997
3.815,IMU0,0.0947265625,2.490234375,0.04541015625,2.9411764705882355,-295.30812324929974,-7.002801120448179
3.825,IMU0,0.09033203125,2.482421875,0.048828125,3.431372549019608,-295.37815126050424,-6.442577030812325
3.835,IMU0,0.0947265625,2.47607421875,0.04345703125,3.991596638655462,-294.18767507002804,-5.6722689075630255
3.845,IMU0,0.09375,2.47216796875,0.04541015625,4.061624649859944,-294.6778711484594,-5.2521008403361344
3.855,IMU0,0.0888671875,2.4697265625,0.04638671875,4.971988795518207,-294.04761904761904,-4.971988795518207
3.865,IMU0,0.0947265625,2.466796875,0.04833984375,5.602240896358544,-294.327731092437,-4.481792717086835
3.875,IMU0,0.09033203125,2.462890625,0.04443359375,4.761904761904762,-292.99719887955183,-4.621848739495799
3.885,IMU0,0.08203125,2.455078125,0.04638671875,5.392156862745098,-292.3669467787115,-4.341736694677872
3.895,IMU0,0.0869140625,2.447265625,0.0478515625,5.5322128851540615,-293.06722689075633,-3.9215686274509807
3.905,IMU0,0.08544921875,2.44140625,0.0400390625,5.392156862745098,-292.8571428571429,-4.271708683473389
3.915,IMU0,0.08251953125,2.44189453125,0.04443359375,6.0924369747899165,-293.2072829131653,-4.201680672268908
3.925,IMU0,0.083984375,2.43505859375,0.04345703125,7.352941176470589,-293.5574229691877,-4.201680672268908
3.935,IMU0,0.07568359375,2.44140625,0.04296875,5.182072829131653,-293.5574229691877,-4.761904761904762
3.945,IMU0,0.080078125,2.45458984375,0.052734375,4.69187675070028,-293.4173669467787,-4.831932773109244
3.955,IMU0,0.0810546875,2.439453125,0.04248046875,5.602240896358544,-293.5574229691877,-5.2521008403361344
3.965,IMU0,0.07861328125,2.423828125,0.0556640625,4.131652661064426,-294.6078431372549,-5.882352941176471
3.975,IMU0,0.07666015625,2.4130859375,0.044921875,3.641456582633053,-295.6582633053221,-6.302521008403362
3.985,IMU0,0.0732421875,2.41455078125,0.04833984375,1.9607843137254903,-296.42857142857144,-6.652661064425771
3.995,IMU0,0.080078125,2.412109375,0.0537109375,1.400560224089636,-297.2689075630252,-6.792717086834735
4.005,IMU0,0.07666015625,2.40576171875,0.04541015625,1.4705882352941178,-297.4089635854342,-7.352941176470589
4.015,IMU0,0.0771484375,2.39990234375,0.05419921875,0.6302521008403361,-298.10924369747903,-7.352941176470589
4.025,IMU0,0.0810546875,2.39501953125,0.05078125,0.9103641456582633,-298.8795518207283,-7.282913165266106
4.035,IMU0,0.07861328125,2.39013671875,0.0478515625,-0.5602240896358543,-298.5294117647059,-7.633053221288516
4.045,IMU0,0.0791015625,2.38671875,0.0400390625,-1.4705882352941178,-298.31932773109247,-7.42296918767507
4.055,IMU0,0.07958984375,2.3828125,0.04443359375,-1.4705882352941178,-298.5294117647059,-7.42296918767507
4.065,IMU0,0.07568359375,2.3798828125,0.0380859375,-0.6302521008403361,-299.15966386554624,-7.282913165266106
4.075,IMU0,0.078125,2.37646484375,0.04345703125,-1.680672268907563,-297.7591036414566,-7.142857142857143
4.085,IMU0,0.07421875,2.3720703125,0.03857421875,-1.5406162464985995,-296.7787114845938,-7.002801120448179
4.095,IMU0,0.07421875,2.36865234375,0.0302734375,-1.1904761904761905,-294.6078431372549,-6.722689075630252
4.105,IMU0,0.083984375,2.3681640625,0.03662109375,-0.7703081232492998,-293.69747899159665,-6.652661064425771
4.115,IMU0,0.08154296875,2.3623046875,0.029296875,-0.6302521008403361,-292.7170868347339,-6.722689075630252
4.125,IMU0,0.07373046875,2.365234375,0.02734375,0.0,-290.89635854341736,-6.862745098039216
4.135,IMU0,0.078125,2.3759765625,0.03125,0.7703081232492998,-289.84593837535016,-6.582633053221289
4.145,IMU0,0.08544921875,2.35498046875,0.0244140625,1.5406162464985995,-287.7450980392157,-7.002801120448179
4.155,IMU0,0.07861328125,2.34521484375,0.02685546875,1.8207282913165266,-286.48459383753504,-7.282913165266106
4.165,IMU0,0.08447265625,2.33837890625,0.0234375,2.100840336134454,-284.4537815126051,-7.212885154061625
4.175,IMU0,0.08154296875,2.337890625,0.0244140625,1.9607843137254903,-283.75350140056025,-7.703081232492997
4.185,IMU0,0.078125,2.34130859375,0.021484375,2.6610644257703084,-282.3529411764706,-7.983193277310924
4.195,IMU0,0.083984375,2.33837890625,0.0205078125,3.711484593837535,-281.2324929971989,-7.913165266106443
4.205,IMU0,0.08984375,2.32666015625,0.0244140625,2.9411764705882355,-279.3417366946779,-8.403361344537815
4.215,IMU0,0.0849609375,2.32861328125,0.02490234375,3.011204481792717,-278.01120448179273,-8.683473389355743
4.225,IMU0,0.08544921875,2.32275390625,0.01953125,4.131652661064426,-278.1512605042017,-8.473389355742297
4.235,IMU0,0.08447265625,2.32421875,0.0244140625,4.831932773109244,-276.9607843137255,-8.61344537815126
4.245,IMU0,0.08154296875,2.32275390625,0.02001953125,4.341736694677872,-275.0700280112045,-8.753501400560225
4.255,IMU0,0.09326171875,2.31201171875,0.02001953125,4.621848739495799,-273.9495798319328,-8.403361344537815
4.265,IMU0,0.0859375,2.30908203125,0.03173828125,4.971988795518207,-272.54901960784315,-8.683473389355743
4.275,IMU0,0.09619140625,2.3115234375,0.01904296875,5.042016806722689,-271.218487394958,-8.403361344537815
4.285,IMU0,0.08740234375,2.32666015625,0.02783203125,4.69187675070028,-270.23809523809524,-8.61344537815126
4.295,IMU0,0.09033203125,2.31884765625,0.01708984375,5.392156862745098,-269.18767507002804,-8.123249299719888
4.305,IMU0,0.09228515625,2.287109375,0.0234375,4.971988795518207,-268.2072829131653,-8.053221288515406
4.315,IMU0,0.09375,2.27880859375,0.0283203125,3.8515406162464987,-266.38655462184875,-7.843137254901961
4.325,IMU0,0.095703125,2.28125,0.01904296875,4.131652661064426,-265.1260504201681,-7.563025210084034
4.335,IMU0,0.087890625,2.283203125,0.03076171875,3.011204481792717,-264.7058823529412,-7.42296918767507
4.345,IMU0,0.09619140625,2.27587890625,0.0244140625,3.151260504201681,-262.46498599439775,-6.932773109243698
4.355,IMU0,0.09912109375,2.2626953125,0.0205078125,3.361344537815126,-261.8347338935574,-6.792717086834735
4.365,IMU0,0.09326171875,2.26611328125,0.025390625,4.481792717086835,-261.41456582633054,-6.722689075630252
4.375,IMU0,0.09814453125,2.267578125,0.017578125,4.201680672268908,-260.5042016806723,-6.23249299719888
4.385,IMU0,0.1005859375,2.2646484375,0.01123046875,3.2913165266106446,-258.5434173669468,-6.23249299719888
4.395,IMU0,0.09521484375,2.27392578125,0.0263671875,3.2212885154061626,-257.98319327731093,-6.23249299719888
4.405,IMU0,0.095703125,2.27490234375,0.01416015625,3.9215686274509807,-257.14285714285717,-5.9523809523809526
4.415,IMU0,0.10205078125,2.27392578125,0.02099609375,2.801120448179272,-255.11204481792717,-5.9523809523809526
4.425,IMU0,0.099609375,2.25927734375,0.02392578125,3.081232492997199,-255.18207282913167,-5.742296918767507
4.435,IMU0,0.09619140625,2.24853515625,0.01318359375,4.061624649859944,-255.0420168067227,-5.602240896358544
4.445,IMU0,0.09375,2.24853515625,0.0283203125,4.061624649859944,-255.3921568627451,-5.46218487394958
4.455,IMU0,0.09375,2.24169921875,0.01953125,4.831932773109244,-255.25210084033614,-5.46218487394958
4.465,IMU0,0.0947265625,2.232421875,0.02001953125,3.8515406162464987,-253.85154061624652,-5.46218487394958
4.475,IMU0,0.09326171875,2.22412109375,0.02783203125,3.8515406162464987,-253.57142857142858,-5.5322128851540615
4.485,IMU0,0.09814453125,2.22900390625,0.01611328125,4.131652661064426,-253.22128851540617,-5.882352941176471
4.495,IMU0,0.095703125,2.2353515625,0.02783203125,2.6610644257703084,-253.85154061624652,-6.022408963585434
4.505,IMU0,0.09130859375,2.2373046875,0.02490234375,2.170868347338936,-253.01120448179273,-6.23249299719888
4.515,IMU0,0.08740234375,2.236328125,0.01904296875,2.73109243697479,-251.89075630252103,-6.442577030812325
4.525,IMU0,0.091796875,2.23388671875,0.02392578125,3.011204481792717,-252.94117647058826,-6.162464985994398
4.535,IMU0,0.09521484375,2.22509765625,0.02685546875,2.030812324929972,-252.8011204481793,-6.512605042016807
4.545,IMU0,0.091796875,2.21533203125,0.01708984375,2.3109243697478994,-251.82072829131653,-6.652661064425771
4.555,IMU0,0.10009765625,2.19970703125,0.02294921875,1.5406162464985995,-251.05042016806723,-6.722689075630252
4.565,IMU0,0.09130859375,2.1943359375,0.02294921875,1.1904761904761905,-251.05042016806723,-7.282913165266106
4.575,IMU0,0.09814453125,2.19580078125,0.02099609375,0.4901960784313726,-251.54061624649862,-7.282913165266106
4.585,IMU0,0.10107421875,2.1904296875,0.02099609375,0.1400560224089636,-251.47058823529412,-7.42296918767507
4.595,IMU0,0.09814453125,2.1982421875,0.01220703125,0.7703081232492998,-250.63025210084035,-7.703081232492997
4.605,IMU0,0.099609375,2.19384765625,0.01904296875,0.7703081232492998,-249.92997198879553,-7.703081232492997
4.615,IMU0,0.09716796875,2.185546875,0.01318359375,1.2605042016806722,-250.21008403361347,-7.843137254901961
4.625,IMU0,0.10009765625,2.1884765625,0.009765625,0.42016806722689076,-249.6498599439776,-7.563025210084034
4.635,IMU0,0.10888671875,2.1806640625,0.01318359375,-0.42016806722689076,-249.01960784313727,-7.42296918767507
4.645,IMU0,0.09716796875,2.18408203125,0.0087890625,0.1400560224089636,-248.17927170868347,-7.633053221288516
4.655,IMU0,0.10498046875,2.18212890625,0.0078125,0.350140056022409,-248.31932773109244,-7.142857142857143
4.665,IMU0,0.107421875,2.17626953125,0.0126953125,0.9803921568627452,-247.89915966386556,-7.002801120448179
4.675,IMU0,0.0986328125,2.171875,0.015625,2.170868347338936,-247.7591036414566,-7.072829131652662
4.685,IMU0,0.1064453125,2.16650390625,0.00390625,2.5910364145658265,-247.19887955182074,-6.652661064425771
4.695,IMU0,0.10009765625,2.15966796875,0.009765625,1.400560224089636,-246.07843137254903,-7.002801120448179
4.705,IMU0,0.10546875,2.158203125,0.00244140625,1.9607843137254903,-245.16806722689077,-6.722689075630252
4.715,IMU0,0.1044921875,2.15869140625,0.00634765625,1.9607843137254903,-242.99719887955183,-6.862745098039216
4.725,IMU0,0.09912109375,2.16015625,0.009765625,2.9411764705882355,-242.85714285714286,-6.792717086834735
4.735,IMU0,0.10791015625,2.15576171875,0.0029296875,2.450980392156863,-240.89635854341736,-6.722689075630252
4.745,IMU0,0.1015625,2.1513671875,0.01416015625,2.030812324929972,-240.89635854341736,-6.722689075630252
4.755,IMU0,0.10595703125,2.146484375,0.00439453125,3.711484593837535,-239.98599439775913,-6.512605042016807
4.765,IMU0,0.103515625,2.14501953125,0.001953125,4.481792717086835,-238.72549019607845,-6.582633053221289
4.775,IMU0,0.10693359375,2.142578125,0.015625,4.481792717086835,-237.3249299719888,-6.512605042016807
4.785,IMU0,0.10400390625,2.13623046875,0.00634765625,4.271708683473389,-236.83473389355743,-6.512605042016807
4.795,IMU0,0.10302734375,2.14013671875,0.01025390625,3.431372549019608,-235.71428571428572,-6.582633053221289
4.805,IMU0,0.10693359375,2.14013671875,0.02099609375,3.5014005602240896,-235.0140056022409,-6.23249299719888
4.815,IMU0,0.10791015625,2.1552734375,0.0068359375,2.801120448179272,-234.31372549019608,-6.23249299719888
4.825,IMU0,0.103515625,2.15869140625,0.0146484375,2.5210084033613445,-234.2436974789916,-6.302521008403362
4.835,IMU0,0.10546875,2.1298828125,0.01513671875,2.450980392156863,-234.17366946778714,-5.8123249299719895
4.845,IMU0,0.107421875,2.11083984375,0.0048828125,2.801120448179272,-234.10364145658264,-5.8123249299719895
4.855,IMU0,0.10009765625,2.10546875,0.01123046875,0.9103641456582633,-233.33333333333334,-5.9523809523809526
4.865,IMU0,0.107421875,2.09814453125,0.00927734375,1.680672268907563,-233.54341736694678,-5.602240896358544
4.875,IMU0,0.1025390625,2.09521484375,0.00537109375,1.6106442577030813,-233.1232492997199,-5.5322128851540615
4.885,IMU0,0.10693359375,2.09521484375,0.015625,-0.1400560224089636,-231.51260504201682,-5.46218487394958
4.895,IMU0,0.10791015625,2.0869140625,0.0009765625,0.9103641456582633,-231.9327731092437,-5.2521008403361344
4.905,IMU0,0.1015625,2.08544921875,0.00634765625,0.9103641456582633,-232.14285714285717,-5.392156862745098
4.915,IMU0,0.107421875,2.08740234375,-0.00830078125,-0.5602240896358543,-228.78151260504202,-5.182072829131653
4.925,IMU0,0.1064453125,2.08642578125,0.01025390625,-0.6302521008403361,-228.36134453781514,-5.322128851540617
4.935,IMU0,0.1025390625,2.08056640625,-0.01318359375,1.1904761904761905,-226.6106442577031,-5.392156862745098
4.945,IMU0,0.1025390625,2.07470703125,-0.00634765625,0.5602240896358543,-226.1204481792717,-5.2521008403361344
4.955,IMU0,0.1025390625,2.06640625,0.0029296875,0.0700280112044818,-224.2997198879552,-5.5322128851540615
4.965,IMU0,0.109375,2.05908203125,-0.02099609375,0.6302521008403361,-221.9187675070028,-5.6722689075630255
4.975,IMU0,0.1025390625,2.0537109375,-0.0048828125,0.5602240896358543,-221.6386554621849,-5.8123249299719895
4.985,IMU0,0.1005859375,2.0458984375,-0.00439453125,1.1204481792717087,-218.9075630252101,-6.0924369747899165
4.995,IMU0,0.10302734375,2.037109375,-0.015625,1.6106442577030813,-217.296918767507,-6.022408963585434
5.005,IMU0,0.1025390625,2.03759765625,-0.005859375,1.9607843137254903,-216.45658263305324,-6.302521008403362
5.015,IMU0,0.1044921875,2.0419921875,-0.01171875,3.2212885154061626,-215.12605042016807,-6.652661064425771
5.025,IMU0,0.1005859375,2.04833984375,-0.017578125,3.2212885154061626,-214.2857142857143,-6.932773109243698
5.035,IMU0,0.0986328125,2.05029296875,-0.00537109375,3.5014005602240896,-214.2857142857143,-7.072829131652662
5.045,IMU0,0.1064453125,2.05078125,-0.0126953125,3.9215686274509807,-211.624649859944,-7.352941176470589
5.055,IMU0,0.10498046875,2.060546875,-0.0087890625,4.341736694677872,-210.99439775910366,-7.703081232492997
5.065,IMU0,0.10693359375,2.05712890625,-0.009765625,3.361344537815126,-209.80392156862746,-7.913165266106443
5.075,IMU0,0.10498046875,2.0546875,-0.01611328125,3.781512605042017,-208.54341736694678,-8.123249299719888
5.085,IMU0,0.1103515625,2.04638671875,-0.01171875,4.201680672268908,-208.68347338935575,-8.123249299719888
5.095,IMU0,0.11181640625,2.03173828125,-0.01904296875,2.380952380952381,-205.67226890756302,-8.333333333333334
5.105,IMU0,0.1083984375,2.01416015625,-0.0185546875,2.8711484593837535,-204.76190476190476,-8.123249299719888
5.115,IMU0,0.111328125,1.98779296875,-0.01318359375,3.011204481792717,-203.0812324929972,-7.703081232492997
5.125,IMU0,0.10693359375,1.9580078125,-0.01611328125,4.621848739495799,-201.33053221288517,-7.703081232492997
5.135,IMU0,0.10888671875,1.93115234375,-0.009765625,3.9215686274509807,-199.85994397759106,-7.142857142857143
5.145,IMU0,0.1123046875,1.8955078125,-0.017578125,4.201680672268908,-198.31932773109244,-6.862745098039216
5.155,IMU0,0.11181640625,1.8681640625,-0.01025390625,3.5714285714285716,-196.49859943977592,-6.512605042016807
5.165,IMU0,0.115234375,1.8310546875,-0.0126953125,3.011204481792717,-194.53781512605042,-5.8123249299719895
5.175,IMU0,0.11376953125,1.7978515625,-0.0126953125,3.5014005602240896,-194.187675070028,-5.392156862745098
5.185,IMU0,0.11474609375,1.75830078125,-0.01171875,3.081232492997199,-194.04761904761907,-4.69187675070028
5.195,IMU0,0.1181640625,1.72216796875,-0.00830078125,2.6610644257703084,-193.1372549019608,-4.271708683473389
5.205,IMU0,0.11865234375,1.69189453125,-0.0078125,3.151260504201681,-192.0168067226891,-3.641456582633053
5.215,IMU0,0.1123046875,1.66162109375,-0.01416015625,3.151260504201681,-191.45658263305322,-2.9411764705882355
5.225,IMU0,0.10693359375,1.60791015625,-0.0029296875,0.8403361344537815,-190.89635854341736,-1.680672268907563
5.235,IMU0,0.1103515625,1.5791015625,-0.017578125,1.050420168067227,-188.51540616246498,-1.6106442577030813
5.245,IMU0,0.1103515625,1.5556640625,-0.00634765625,0.4901960784313726,-188.16526610644257,-1.4705882352941178
5.255,IMU0,0.1123046875,1.529296875,0.0068359375,2.100840336134454,-189.7058823529412,-1.1204481792717087
5.265,IMU0,0.10107421875,1.50830078125,-0.02783203125,1.400560224089636,-188.58543417366948,-1.4705882352941178
5.275,IMU0,0.12109375,1.48291015625,-0.00439453125,-0.5602240896358543,-190.19607843137257,-1.4705882352941178
5.285,IMU0,0.10009765625,1.4560546875,-0.00048828125,0.21008403361344538,-189.77591036414566,-2.030812324929972
5.295,IMU0,0.0966796875,1.431640625,-0.02490234375,0.1400560224089636,-190.19607843137257,-1.5406162464985995
5.305,IMU0,0.10595703125,1.4091796875,-0.0048828125,-2.170868347338936,-190.68627450980392,-1.1904761904761905
5.315,IMU0,0.09716796875,1.37890625,-0.02978515625,-2.380952380952381,-189.56582633053222,-1.680672268907563
5.325,IMU0,0.107421875,1.34130859375,0.00390625,-2.450980392156863,-189.14565826330534,-1.7507002801120448
5.335,IMU0,0.09033203125,1.30859375,-0.01904296875,-1.050420168067227,-189.63585434173672,-2.170868347338936
5.345,IMU0,0.0908203125,1.27197265625,-0.0087890625,-0.700280112044818,-189.42577030812325,-2.170868347338936
5.355,IMU0,0.09765625,1.23974609375,-0.0322265625,-1.7507002801120448,-189.14565826330534,-2.3109243697478994
5.365,IMU0,0.09326171875,1.2021484375,-0.017578125,-2.100840336134454,-188.65546218487395,-3.151260504201681
5.375,IMU0,0.0869140625,1.173828125,-0.02880859375,-0.1400560224089636,-188.30532212885154,-3.2913165266106446
5.385,IMU0,0.09375,1.142578125,-0.03564453125,0.1400560224089636,-188.16526610644257,-3.5714285714285716
5.395,IMU0,0.08349609375,1.10205078125,-0.03125,-1.4705882352941178,-187.18487394957984,-4.341736694677872
5.405,IMU0,0.09130859375,1.06640625,-0.03466796875,0.350140056022409,-186.624649859944,-4.621848739495799
5.415,IMU0,0.09423828125,1.0439453125,-0.02880859375,0.2801120448179272,-185.99439775910366,-5.5322128851540615
5.425,IMU0,0.0771484375,1.0078125,-0.044921875,0.0,-184.38375350140058,-6.302521008403362
5.435,IMU0,0.09375,0.97216796875,-0.025390625,0.1400560224089636,-184.94397759103643,-6.022408963585434
5.445,IMU0,0.09228515625,0.93115234375,-0.02978515625,2.450980392156863,-185.29411764705884,-6.792717086834735
5.455,IMU0,0.08154296875,0.90380859375,-0.03271484375,1.9607843137254903,-184.80392156862746,-7.42296918767507
5.465,IMU0,0.103515625,0.85986328125,-0.0302734375,3.2212885154061626,-183.1232492997199,-7.142857142857143
5.475,IMU0,0.10302734375,0.8203125,-0.02197265625,2.73109243697479,-183.8935574229692,-7.843137254901961
5.485,IMU0,0.08154296875,0.78955078125,-0.03515625,2.5910364145658265,-183.26330532212887,-8.403361344537815
5.495,IMU0,0.0986328125,0.7490234375,-0.04443359375,4.201680672268908,-184.87394957983193,-7.352941176470589
5.505,IMU0,0.10986328125,0.69921875,-0.03857421875,1.8207282913165266,-182.84313725490196,-7.773109243697479
5.515,IMU0,0.08349609375,0.6611328125,-0.03173828125,1.7507002801120448,-183.33333333333334,-8.543417366946779
5.525,IMU0,0.1142578125,0.619140625,-0.041015625,1.5406162464985995,-182.7731092436975,-8.263305322128852
5.535,IMU0,0.10595703125,0.58203125,-0.03759765625,2.3109243697478994,-182.21288515406164,-7.703081232492997
5.545,IMU0,0.1181640625,0.4951171875,-0.03466796875,3.5714285714285716,-180.74229691876752,-6.442577030812325
5.555,IMU0,0.1083984375,0.45263671875,-0.03662109375,4.201680672268908,-180.812324929972,-6.372549019607844
5.565,IMU0,0.1181640625,0.4169921875,-0.03759765625,2.8711484593837535,-180.0420168067227,-5.882352941176471
5.575,IMU0,0.12353515625,0.36962890625,-0.03955078125,3.5714285714285716,-180.46218487394958,-5.46218487394958
5.585,IMU0,0.11865234375,0.33154296875,-0.0380859375,3.011204481792717,-180.60224089635855,-5.5322128851540615
5.595,IMU0,0.1181640625,0.29541015625,-0.03564453125,3.9215686274509807,-180.60224089635855,-5.2521008403361344
5.605,IMU0,0.11474609375,0.25390625,-0.029296875,4.411764705882353,-181.1624649859944,-5.2521008403361344
5.615,IMU0,0.099609375,0.2255859375,-0.02294921875,4.131652661064426,-181.79271708683476,-5.182072829131653
5.625,IMU0,0.1025390625,0.189453125,-0.03076171875,5.46218487394958,-181.1624649859944,-4.131652661064426
5.635,IMU0,0.10498046875,0.1640625,-0.017578125,5.602240896358544,-181.1624649859944,-3.5014005602240896
5.645,IMU0,0.09814453125,0.1298828125,-0.01171875,5.322128851540617,-182.2829131652661,-3.431372549019608
5.655,IMU0,0.099609375,0.1015625,-0.02001953125,5.8123249299719895,-182.07282913165267,-3.011204481792717
5.665,IMU0,0.10205078125,0.07275390625,-0.02197265625,4.551820728291316,-182.42296918767508,-3.011204481792717
5.675,IMU0,0.09765625,0.0498046875,-0.01025390625,4.901960784313726,-183.19327731092437,-2.9411764705882355
5.685,IMU0,0.09765625,0.029296875,-0.00927734375,5.6722689075630255,-184.2436974789916,-3.081232492997199
5.695,IMU0,0.095703125,0.01416015625,-0.01220703125,5.182072829131653,-186.06442577030813,-3.2212885154061626
5.705,IMU0,0.09521484375,-0.00146484375,-0.0126953125,5.042016806722689,-189.00560224089637,-3.2913165266106446
5.715,IMU0,0.0927734375,-0.02099609375,-0.0126953125,4.481792717086835,-190.75630252100842,-3.361344537815126
5.725,IMU0,0.087890625,-0.03564453125,-0.00927734375,3.431372549019608,-192.0168067226891,-3.711484593837535
5.735,IMU0,0.08935546875,-0.04736328125,-0.01513671875,2.2408963585434174,-192.50700280112045,-3.8515406162464987
5.745,IMU0,0.0888671875,-0.05859375,-0.017578125,1.5406162464985995,-194.46778711484595,-3.9215686274509807
5.755,IMU0,0.087890625,-0.07177734375,-0.0068359375,-1.400560224089636,-195.7983193277311,-4.131652661064426
5.765,IMU0,0.07763671875,-0.078125,0.00048828125,-0.350140056022409,-197.7591036414566,-4.271708683473389
5.775,IMU0,0.07470703125,-0.08935546875,-0.001953125,1.400560224089636,-200.63025210084035,-3.991596638655462
5.785,IMU0,0.0771484375,-0.091796875,-0.00537109375,0.4901960784313726,-204.2717086834734,-3.9215686274509807
5.795,IMU0,0.07861328125,-0.09716796875,0.0009765625,0.2801120448179272,-205.60224089635855,-3.8515406162464987
5.805,IMU0,0.068359375,-0.10595703125,0.00537109375,1.6106442577030813,-207.2829131652661,-4.061624649859944
5.815,IMU0,0.0615234375,-0.1083984375,0.0078125,0.7703081232492998,-208.82352941176472,-4.271708683473389
5.825,IMU0,0.06689453125,-0.1142578125,0.00537109375,0.9803921568627452,-211.06442577030813,-4.341736694677872
5.835,IMU0,0.0712890625,-0.12158203125,0.01123046875,2.030812324929972,-213.02521008403363,-4.831932773109244
5.845,IMU0,0.06494140625,-0.12353515625,0.00927734375,3.5014005602240896,-216.24649859943978,-5.322128851540617
5.855,IMU0,0.064453125,-0.1279296875,0.0126953125,3.081232492997199,-218.76750700280112,-5.742296918767507
5.865,IMU0,0.06689453125,-0.1279296875,0.01318359375,2.9411764705882355,-224.43977591036415,-6.722689075630252
5.875,IMU0,0.0771484375,-0.15966796875,0.02978515625,3.991596638655462,-236.55462184873952,-7.352941176470589
5.885,IMU0,0.06103515625,-0.1357421875,0.02685546875,4.481792717086835,-243.9075630252101,-7.703081232492997
5.895,IMU0,0.060546875,-0.15673828125,0.01953125,4.901960784313726,-245.0980392156863,-7.563025210084034
5.905,IMU0,0.060546875,-0.162109375,-0.0078125,4.551820728291316,-243.55742296918768,-8.19327731092437
5.915,IMU0,0.05615234375,-0.1748046875,0.01953125,2.801120448179272,-243.9075630252101,-8.053221288515406
5.925,IMU0,0.0615234375,-0.1845703125,0.0185546875,2.3109243697478994,-245.30812324929974,-7.843137254901961
5.935,IMU0,0.06201171875,-0.19384765625,0.01318359375,3.081232492997199,-244.18767507002804,-7.913165266106443
5.945,IMU0,0.0576171875,-0.2041015625,0.001953125,3.431372549019608,-243.97759103641457,-7.633053221288516
5.955,IMU0,0.0625,-0.22216796875,-0.0087890625,1.680672268907563,-246.28851540616247,-7.072829131652662
5.965,IMU0,0.06103515625,-0.23486328125,-0.00830078125,-0.21008403361344538,-247.47899159663868,-7.142857142857143
5.975,IMU0,0.04638671875,-0.2470703125,-0.0009765625,-1.9607843137254903,-248.80952380952382,-6.722689075630252
5.985,IMU0,0.03759765625,-0.25390625,-0.02001953125,-2.170868347338936,-248.109243697479,-5.5322128851540615
5.995,IMU0,0.04345703125,-0.26416015625,-0.03759765625,-0.42016806722689076,-249.2296918767507,-4.411764705882353
6.005,IMU0,0.0673828125,-0.27490234375,0.00048828125,-0.1400560224089636,-248.9495798319328,-3.5714285714285716
6.015,IMU0,0.0693359375,-0.302734375,0.0,-0.6302521008403361,-248.24929971988797,-4.061624649859944
6.025,IMU0,0.0478515625,-0.3115234375,-0.0068359375,-3.5014005602240896,-245.51820728291318,-5.46218487394958
6.035,IMU0,0.02734375,-0.32666015625,-0.017578125,-6.302521008403362,-244.53781512605042,-5.742296918767507
6.045,IMU0,0.04443359375,-0.3408203125,-0.01318359375,-5.882352941176471,-243.97759103641457,-4.69187675070028
6.055,IMU0,0.05859375,-0.369140625,-0.00830078125,0.5602240896358543,-243.83753501400562,-5.46218487394958
6.065,IMU0,0.05322265625,-0.37353515625,-0.00244140625,6.0924369747899165,-245.58823529411765,-7.142857142857143
6.075,IMU0,0.0673828125,-0.3837890625,-0.041015625,9.173669467787116,-244.11764705882354,-7.563025210084034
6.085,IMU0,0.06640625,-0.3994140625,-0.04541015625,5.46218487394958,-243.62745098039215,-9.38375350140056
6.095,IMU0,0.048828125,-0.400390625,-0.0146484375,1.1904761904761905,-244.18767507002804,-10.434173669467787
6.105,IMU0,0.05517578125,-0.4169921875,-0.025390625,-1.7507002801120448,-242.3669467787115,-10.154061624649861
6.115,IMU0,0.0576171875,-0.41748046875,-0.02490234375,-4.131652661064426,-242.57703081232495,-10.084033613445378
6.125,IMU0,0.05712890625,-0.4267578125,-0.00390625,-3.011204481792717,-243.62745098039215,-10.434173669467787
6.135,IMU0,0.05712890625,-0.43408203125,-0.00244140625,1.8907563025210086,-245.0980392156863,-10.57422969187675
6.145,IMU0,0.05712890625,-0.4384765625,-0.0029296875,4.341736694677872,-246.00840336134456,-10.504201680672269
6.155,IMU0,0.056640625,-0.44677734375,0.013671875,5.9523809523809526,-246.84873949579833,-10.084033613445378
6.165,IMU0,0.05712890625,-0.44482421875,0.017578125,7.282913165266106,-247.40896358543418,-9.453781512605042
6.175,IMU0,0.07373046875,-0.45556640625,0.00830078125,0.4901960784313726,-247.2689075630252,-7.913165266106443
6.185,IMU0,0.07177734375,-0.44921875,0.02392578125,0.4901960784313726,-246.218487394958,-8.683473389355743
6.195,IMU0,0.05419921875,-0.44775390625,0.0078125,3.8515406162464987,-244.88795518207283,-8.683473389355743
6.205,IMU0,0.05859375,-0.46142578125,0.00439453125,6.512605042016807,-244.46778711484595,-8.19327731092437
6.215,IMU0,0.0703125,-0.46875,0.01806640625,5.9523809523809526,-245.3781512605042,-7.843137254901961
6.225,IMU0,0.06201171875,-0.46484375,0.00830078125,7.212885154061625,-245.72829131652662,-7.983193277310924
6.235,IMU0,0.0615234375,-0.4677734375,0.00439453125,6.022408963585434,-245.93837535014006,-7.492997198879552
6.245,IMU0,0.0712890625,-0.4716796875,0.01806640625,4.481792717086835,-246.218487394958,-6.932773109243698
6.255,IMU0,0.0703125,-0.46923828125,0.01513671875,4.551820728291316,-247.7591036414566,-6.652661064425771
6.265,IMU0,0.060546875,-0.4658203125,0.0126953125,3.711484593837535,-249.01960784313727,-6.23249299719888
6.275,IMU0,0.0654296875,-0.46484375,0.01513671875,1.8207282913165266,-249.7198879551821,-5.602240896358544
6.285,IMU0,0.064453125,-0.46875,0.009765625,-2.5910364145658265,-249.57983193277312,-5.182072829131653
6.295,IMU0,0.056640625,-0.46875,0.00439453125,-3.081232492997199,-250.98039215686276,-5.182072829131653
6.305,IMU0,0.056640625,-0.474609375,0.005859375,-0.350140056022409,-252.3109243697479,-4.761904761904762
6.315,IMU0,0.0595703125,-0.47412109375,0.00439453125,2.9411764705882355,-253.0812324929972,-4.551820728291316
6.325,IMU0,0.05322265625,-0.47900390625,0.0,5.46218487394958,-255.25210084033614,-4.621848739495799
6.335,IMU0,0.046875,-0.4833984375,0.01171875,3.711484593837535,-257.2128851540616,-3.641456582633053
6.345,IMU0,0.04833984375,-0.48095703125,0.00537109375,0.8403361344537815,-258.1232492997199,-2.8711484593837535
6.355,IMU0,0.0498046875,-0.4755859375,0.00439453125,-0.9803921568627452,-259.3137254901961,-2.6610644257703084
6.365,IMU0,0.04833984375,-0.47900390625,0.0029296875,-1.5406162464985995,-259.80392156862746,-2.5910364145658265
6.375,IMU0,0.05224609375,-0.4755859375,0.00048828125,-1.5406162464985995,-260.4341736694678,-2.450980392156863
6.385,IMU0,0.04736328125,-0.48779296875,-0.00537109375,-1.1904761904761905,-260.7142857142857,-2.801120448179272
6.395,IMU0,0.044921875,-0.48583984375,-0.00244140625,-1.7507002801120448,-261.48459383753504,-3.5014005602240896
6.405,IMU0,0.04736328125,-0.494140625,-0.005859375,-1.680672268907563,-262.53501400560225,-3.991596638655462
6.415,IMU0,0.0439453125,-0.5,-0.0078125,-2.030812324929972,-262.8151260504202,-4.831932773109244
6.425,IMU0,0.04248046875,-0.50341796875,-0.01318359375,-4.201680672268908,-263.2352941176471,-5.602240896358544
6.435,IMU0,0.04833984375,-0.4990234375,-0.0048828125,-1.3305322128851542,-264.4957983193277,-6.582633053221289
6.445,IMU0,0.052734375,-0.49853515625,-0.001953125,3.5014005602240896,-265.26610644257704,-7.633053221288516
6.455,IMU0,0.046875,-0.49462890625,-0.0068359375,4.621848739495799,-267.3669467787115,-8.543417366946779
6.465,IMU0,0.04248046875,-0.490234375,0.00244140625,0.9103641456582633,-267.57703081232495,-9.243697478991598
6.475,IMU0,0.0458984375,-0.490234375,-0.00439453125,-3.711484593837535,-267.2268907563025,-9.453781512605042
6.485,IMU0,0.0458984375,-0.4873046875,-0.01025390625,-6.162464985994398,-268.2773109243698,-10.014005602240896
6.495,IMU0,0.0458984375,-0.4814453125,-0.009765625,-2.100840336134454,-269.9579831932773,-10.784313725490197
6.505,IMU0,0.04345703125,-0.48193359375,-0.01171875,0.5602240896358543,-269.18767507002804,-11.554621848739496
6.515,IMU0,0.041015625,-0.484375,-0.01318359375,4.901960784313726,-269.2577030812325,-11.834733893557424
6.525,IMU0,0.0478515625,-0.48681640625,-0.0146484375,4.621848739495799,-270.16806722689074,-11.414565826330533
6.535,IMU0,0.04736328125,-0.4853515625,-0.0205078125,1.050420168067227,-269.74789915966386,-11.27450980392157
6.545,IMU0,0.046875,-0.4873046875,-0.0205078125,-3.081232492997199,-269.18767507002804,-10.92436974789916
6.555,IMU0,0.05029296875,-0.49072265625,-0.015625,-4.971988795518207,-268.76750700280115,-10.294117647058824
6.565,IMU0,0.05224609375,-0.49072265625,-0.02978515625,-3.5714285714285716,-268.9075630252101,-9.73389355742297
6.575,IMU0,0.0546875,-0.49462890625,-0.01953125,0.5602240896358543,-269.5378151260504,-9.523809523809524
6.585,IMU0,0.05615234375,-0.49169921875,-0.0224609375,6.302521008403362,-270.5882352941177,-9.313725490196079
6.595,IMU0,0.0556640625,-0.490234375,-0.0224609375,8.683473389355743,-270.30812324929974,-8.823529411764707
6.605,IMU0,0.05810546875,-0.49462890625,-0.0166015625,6.652661064425771,-270.5882352941177,-8.19327731092437
6.615,IMU0,0.0546875,-0.4912109375,-0.01806640625,3.2212885154061626,-270.0280112044818,-7.703081232492997
6.625,IMU0,0.05615234375,-0.48388671875,-0.01904296875,1.5406162464985995,-269.467787114846,-7.072829131652662
6.635,IMU0,0.05810546875,-0.4794921875,-0.01318359375,3.781512605042017,-269.6078431372549,-6.722689075630252
6.645,IMU0,0.05712890625,-0.47509765625,-0.00927734375,3.9215686274509807,-270.5182072829132,-6.792717086834735
6.655,IMU0,0.05419921875,-0.47216796875,-0.02197265625,4.551820728291316,-268.9775910364146,-6.792717086834735
6.665,IMU0,0.056640625,-0.47021484375,-0.021484375,4.411764705882353,-268.3473389355742,-6.722689075630252
6.675,IMU0,0.06005859375,-0.46826171875,-0.00927734375,3.991596638655462,-267.50700280112045,-6.792717086834735
6.685,IMU0,0.05517578125,-0.46923828125,-0.01513671875,4.551820728291316,-266.2464985994398,-6.792717086834735
6.695,IMU0,0.046875,-0.47265625,-0.009765625,4.971988795518207,-265.1260504201681,-6.792717086834735
6.705,IMU0,0.0546875,-0.4892578125,-0.0107421875,8.053221288515406,-265.26610644257704,-6.792717086834735
6.715,IMU0,0.0576171875,-0.48876953125,-0.0078125,9.663865546218489,-265.8263305322129,-7.072829131652662
6.725,IMU0,0.056640625,-0.4931640625,-0.00146484375,7.913165266106443,-266.1064425770308,-7.282913165266106
6.735,IMU0,0.0576171875,-0.48779296875,-0.00830078125,3.081232492997199,-266.31652661064425,-6.862745098039216
6.745,IMU0,0.05810546875,-0.4892578125,0.00146484375,-0.6302521008403361,-266.1764705882353,-6.582633053221289
6.755,IMU0,0.05859375,-0.48388671875,0.00244140625,-1.8907563025210086,-265.4761904761905,-6.582633053221289
6.765,IMU0,0.0615234375,-0.4853515625,0.00146484375,-2.2408963585434174,-265.96638655462186,-6.722689075630252
6.775,IMU0,0.06005859375,-0.474609375,0.005859375,1.400560224089636,-267.7170868347339,-6.792717086834735
6.785,IMU0,0.05908203125,-0.47509765625,0.001953125,2.380952380952381,-268.3473389355742,-6.722689075630252
6.795,IMU0,0.052734375,-0.4765625,0.0048828125,1.9607843137254903,-268.9075630252101,-6.652661064425771
6.805,IMU0,0.06103515625,-0.478515625,-0.00732421875,0.21008403361344538,-269.467787114846,-6.23249299719888
6.815,IMU0,0.05859375,-0.47607421875,0.00146484375,-0.9103641456582633,-270.0980392156863,-6.162464985994398
6.825,IMU0,0.0556640625,-0.47607421875,-0.00146484375,-1.2605042016806722,-269.81792717086836,-5.8123249299719895
6.835,IMU0,0.0576171875,-0.47802734375,-0.01025390625,0.5602240896358543,-269.88795518207286,-5.742296918767507
6.845,IMU0,0.0556640625,-0.47265625,-0.0107421875,0.0,-269.6078431372549,-5.602240896358544
6.855,IMU0,0.05517578125,-0.47998046875,-0.0068359375,0.5602240896358543,-270.0280112044818,-5.2521008403361344
6.865,IMU0,0.0546875,-0.47802734375,-0.0087890625,0.21008403361344538,-270.0980392156863,-5.2521008403361344
6.875,IMU0,0.0498046875,-0.47998046875,-0.00830078125,-0.21008403361344538,-269.11764705882354,-5.5322128851540615
6.885,IMU0,0.052734375,-0.48095703125,-0.0126953125,0.9803921568627452,-270.16806722689074,-5.46218487394958
6.895,IMU0,0.05615234375,-0.47900390625,-0.0146484375,1.1904761904761905,-269.327731092437,-5.6722689075630255
6.905,IMU0,0.05029296875,-0.4833984375,-0.01806640625,1.9607843137254903,-268.2072829131653,-6.0924369747899165
6.915,IMU0,0.04638671875,-0.48486328125,-0.01513671875,1.400560224089636,-268.2773109243698,-6.372549019607844
6.925,IMU0,0.04833984375,-0.4892578125,-0.01953125,1.680672268907563,-267.3669467787115,-6.652661064425771
6.935,IMU0,0.0458984375,-0.4921875,-0.021484375,1.3305322128851542,-266.8067226890756,-7.072829131652662
6.945,IMU0,0.0478515625,-0.49365234375,-0.01806640625,1.8207282913165266,-266.1064425770308,-7.352941176470589
6.955,IMU0,0.05029296875,-0.49267578125,-0.02099609375,3.081232492997199,-266.1064425770308,-7.633053221288516
6.965,IMU0,0.046875,-0.49560546875,-0.02294921875,1.5406162464985995,-266.03641456582636,-7.913165266106443
6.975,IMU0,0.04638671875,-0.501953125,-0.01904296875,1.9607843137254903,-265.89635854341736,-8.333333333333334
6.985,IMU0,0.0498046875,-0.49755859375,-0.02001953125,1.7507002801120448,-265.33613445378154,-8.61344537815126
6.995,IMU0,0.048828125,-0.5009765625,-0.0205078125,1.8207282913165266,-265.33613445378154,-9.033613445378151
7.005,IMU0,0.04931640625,-0.50048828125,-0.01806640625,2.801120448179272,-264.91596638655466,-9.103641456582633
7.015,IMU0,0.05029296875,-0.50146484375,-0.0244140625,2.2408963585434174,-264.2857142857143,-9.313725490196079
7.025,IMU0,0.05029296875,-0.5009765625,-0.01953125,1.6106442577030813,-263.65546218487395,-9.593837535014005
7.035,IMU0,0.05322265625,-0.50341796875,-0.01123046875,2.5910364145658265,-263.79551820728295,-9.593837535014005
7.045,IMU0,0.052734375,-0.5048828125,-0.0224609375,2.2408963585434174,-263.65546218487395,-9.523809523809524
7.055,IMU0,0.0517578125,-0.501953125,-0.015625,1.7507002801120448,-262.46498599439775,-9.73389355742297
7.065,IMU0,0.05224609375,-0.5048828125,-0.01806640625,2.73109243697479,-262.04481792717087,-9.523809523809524
7.075,IMU0,0.05419921875,-0.505859375,-0.02392578125,2.8711484593837535,-261.6946778711485,-9.243697478991598
7.085,IMU0,0.05078125,-0.50732421875,-0.0126953125,2.380952380952381,-261.41456582633054,-9.243697478991598
7.095,IMU0,0.05517578125,-0.50830078125,-0.015625,2.801120448179272,-260.0840336134454,-9.103641456582633
7.105,IMU0,0.05810546875,-0.51025390625,-0.0185546875,3.151260504201681,-260.29411764705884,-8.473389355742297
7.115,IMU0,0.05615234375,-0.509765625,-0.0146484375,2.380952380952381,-260.0140056022409,-8.19327731092437
7.125,IMU0,0.0517578125,-0.517578125,-0.00244140625,3.9215686274509807,-259.87394957983196,-7.703081232492997
7.135,IMU0,0.05224609375,-0.513671875,-0.01220703125,4.761904761904762,-260.0140056022409,-7.282913165266106
7.145,IMU0,0.0576171875,-0.51708984375,-0.00244140625,4.761904761904762,-259.24369747899163,-6.862745098039216
7.155,IMU0,0.05029296875,-0.52197265625,-0.0048828125,5.322128851540617,-259.17366946778714,-7.072829131652662
7.165,IMU0,0.04638671875,-0.529296875,-0.0068359375,5.042016806722689,-258.1232492997199,-6.792717086834735
7.175,IMU0,0.06103515625,-0.54833984375,-0.0126953125,5.5322128851540615,-258.68347338935575,-6.0924369747899165
7.185,IMU0,0.0537109375,-0.5615234375,0.0166015625,5.042016806722689,-259.3837535014006,-6.862745098039216
7.195,IMU0,0.03662109375,-0.57177734375,-0.00341796875,5.602240896358544,-258.1932773109244,-6.652661064425771
7.205,IMU0,0.05029296875,-0.5576171875,-0.00537109375,5.602240896358544,-258.4733893557423,-6.442577030812325
7.215,IMU0,0.06005859375,-0.56787109375,0.01220703125,4.551820728291316,-260.1540616246499,-5.742296918767507
7.225,IMU0,0.04833984375,-0.5625,0.01171875,4.971988795518207,-260.0140056022409,-6.442577030812325
7.235,IMU0,0.0478515625,-0.5546875,0.00439453125,5.322128851540617,-260.7142857142857,-6.302521008403362
7.245,IMU0,0.0517578125,-0.5615234375,0.01220703125,4.901960784313726,-262.11484593837537,-6.0924369747899165
7.255,IMU0,0.03173828125,-0.55908203125,0.00830078125,5.182072829131653,-263.2352941176471,-6.302521008403362
7.265,IMU0,0.03857421875,-0.55615234375,0.0205078125,3.991596638655462,-263.515406162465,-6.23249299719888
7.275,IMU0,0.072265625,-0.54833984375,0.01513671875,4.761904761904762,-264.91596638655466,-5.46218487394958
7.285,IMU0,0.05078125,-0.5537109375,0.0107421875,4.061624649859944,-265.26610644257704,-6.722689075630252
7.295,IMU0,0.03076171875,-0.54443359375,0.03125,3.431372549019608,-267.15686274509807,-6.722689075630252
7.305,IMU0,0.05908203125,-0.54638671875,0.015625,4.411764705882353,-267.99719887955183,-5.5322128851540615
7.315,IMU0,0.05224609375,-0.55859375,-0.0263671875,3.991596638655462,-267.50700280112045,-7.002801120448179
7.325,IMU0,0.0263671875,-0.54248046875,0.029296875,0.0700280112044818,-269.327731092437,-6.932773109243698
7.335,IMU0,0.04345703125,-0.556640625,0.03662109375,1.6106442577030813,-269.5378151260504,-5.8123249299719895
7.345,IMU0,0.0546875,-0.5517578125,-0.0166015625,1.8907563025210086,-271.5686274509804,-6.022408963585434
7.355,IMU0,0.03564453125,-0.53564453125,0.02587890625,0.4901960784313726,-273.73949579831935,-6.23249299719888
7.365,IMU0,0.0283203125,-0.5458984375,0.0458984375,-0.350140056022409,-272.3389355742297,-5.6722689075630255
7.375,IMU0,0.05908203125,-0.55224609375,-0.01123046875,2.030812324929972,-272.54901960784315,-5.882352941176471
7.385,IMU0,0.056640625,-0.5380859375,0.00537109375,0.2801120448179272,-273.3893557422969,-6.582633053221289
7.395,IMU0,0.025390625,-0.54052734375,0.04345703125,-0.700280112044818,-274.78991596638656,-6.0924369747899165
7.405,IMU0,0.04150390625,-0.5517578125,0.00146484375,1.050420168067227,-274.71988795518206,-6.582633053221289
7.415,IMU0,0.0517578125,-0.54248046875,0.00048828125,0.4901960784313726,-274.5798319327731,-6.652661064425771
7.425,IMU0,0.03759765625,-0.53955078125,0.0205078125,1.2605042016806722,-275.21008403361344,-6.792717086834735
7.435,IMU0,0.03857421875,-0.5458984375,0.01220703125,1.9607843137254903,-275.4201680672269,-6.162464985994398
7.445,IMU0,0.0302734375,-0.544921875,0.03173828125,0.42016806722689076,-277.94117647058823,-7.352941176470589
7.455,IMU0,0.025390625,-0.54541015625,0.00390625,1.7507002801120448,-277.8011204481793,-6.932773109243698
7.465,IMU0,0.046875,-0.53369140625,-0.015625,1.3305322128851542,-277.7310924369748,-6.932773109243698
7.475,IMU0,0.05224609375,-0.52978515625,0.05126953125,0.21008403361344538,-278.1512605042017,-7.142857142857143
7.485,IMU0,0.02587890625,-0.53466796875,0.01025390625,2.5210084033613445,-277.94117647058823,-7.352941176470589
7.495,IMU0,0.02587890625,-0.53955078125,-0.005859375,2.73109243697479,-277.8011204481793,-8.473389355742297
7.505,IMU0,0.04931640625,-0.53125,0.02978515625,1.680672268907563,-278.5714285714286,-7.352941176470589
7.515,IMU0,0.04833984375,-0.52880859375,-0.00927734375,3.431372549019608,-277.59103641456585,-7.42296918767507
7.525,IMU0,0.02392578125,-0.52490234375,-0.0009765625,2.380952380952381,-278.08123249299723,-8.403361344537815
7.535,IMU0,0.03662109375,-0.53662109375,0.0205078125,1.2605042016806722,-277.7310924369748,-7.913165266106443
7.545,IMU0,0.04931640625,-0.53173828125,0.0263671875,2.9411764705882355,-277.59103641456585,-7.773109243697479
7.555,IMU0,0.0361328125,-0.5234375,-0.00830078125,3.9215686274509807,-277.2408963585434,-8.263305322128852
7.565,IMU0,0.044921875,-0.53076171875,0.0185546875,3.151260504201681,-277.8711484593838,-7.42296918767507
7.575,IMU0,0.05126953125,-0.53759765625,0.029296875,3.2913165266106446,-278.3613445378151,-7.773109243697479
7.585,IMU0,0.033203125,-0.53076171875,0.01171875,3.711484593837535,-278.71148459383755,-9.243697478991598
7.595,IMU0,0.04052734375,-0.52099609375,0.00927734375,1.8907563025210086,-280.0420168067227,-7.703081232492997
7.605,IMU0,0.0595703125,-0.53564453125,0.0185546875,3.081232492997199,-281.2324929971989,-7.913165266106443
7.615,IMU0,0.0419921875,-0.5205078125,0.0185546875,2.801120448179272,-283.4033613445378,-9.103641456582633
7.625,IMU0,0.0263671875,-0.513671875,0.0068359375,1.6106442577030813,-283.9635854341737,-8.19327731092437
7.635,IMU0,0.0361328125,-0.51123046875,0.04052734375,2.5210084033613445,-283.8235294117647,-7.142857142857143
7.645,IMU0,0.02587890625,-0.52880859375,0.009765625,3.011204481792717,-283.4733893557423,-6.932773109243698
7.655,IMU0,0.04248046875,-0.52587890625,0.02685546875,3.151260504201681,-283.9635854341737,-6.0924369747899165
7.665,IMU0,0.04150390625,-0.52734375,0.01318359375,2.100840336134454,-284.80392156862746,-5.46218487394958
7.675,IMU0,0.03857421875,-0.5244140625,0.02392578125,2.2408963585434174,-285.22408963585434,-6.722689075630252
7.685,IMU0,0.037109375,-0.5087890625,0.01025390625,2.380952380952381,-285.7142857142857,-6.162464985994398
7.695,IMU0,0.03564453125,-0.51220703125,0.03076171875,2.380952380952381,-285.85434173669466,-5.042016806722689
7.705,IMU0,0.0400390625,-0.5205078125,0.0068359375,1.680672268907563,-286.5546218487395,-5.042016806722689
7.715,IMU0,0.03125,-0.51513671875,0.04736328125,2.100840336134454,-287.04481792717087,-5.8123249299719895
7.725,IMU0,0.02685546875,-0.50390625,0.00146484375,3.151260504201681,-287.04481792717087,-5.182072829131653
7.735,IMU0,0.052734375,-0.50390625,0.02490234375,1.1904761904761905,-287.8151260504202,-5.8123249299719895
7.745,IMU0,0.046875,-0.521484375,0.02099609375,1.1904761904761905,-289.14565826330534,-6.512605042016807
7.755,IMU0,0.03369140625,-0.51171875,0.0341796875,0.8403361344537815,-290.6862745098039,-5.9523809523809526
7.765,IMU0,0.0546875,-0.5185546875,0.0419921875,1.3305322128851542,-291.8067226890756,-6.792717086834735
7.775,IMU0,0.021484375,-0.5048828125,-0.00439453125,2.170868347338936,-292.3669467787115,-8.263305322128852
7.785,IMU0,0.029296875,-0.50927734375,0.02587890625,0.2801120448179272,-295.0280112044818,-6.512605042016807
7.795,IMU0,0.04931640625,-0.51025390625,0.01513671875,1.1904761904761905,-295.4481792717087,-7.142857142857143
7.805,IMU0,0.0244140625,-0.4990234375,0.0322265625,0.9103641456582633,-296.2885154061625,-7.633053221288516
7.815,IMU0,0.025390625,-0.50244140625,0.02783203125,1.6106442577030813,-295.93837535014006,-7.002801120448179
7.825,IMU0,0.0478515625,-0.5048828125,0.02099609375,1.050420168067227,-297.47899159663865,-6.372549019607844
7.835,IMU0,0.04248046875,-0.49951171875,0.05126953125,0.700280112044818,-299.5098039215686,-7.983193277310924
7.845,IMU0,0.02392578125,-0.50439453125,0.00634765625,2.5210084033613445,-299.15966386554624,-8.053221288515406
7.855,IMU0,0.03759765625,-0.50732421875,0.00634765625,0.700280112044818,-300.98039215686276,-6.162464985994398
7.865,IMU0,0.03564453125,-0.49853515625,0.0390625,0.7703081232492998,-301.2605042016807,-7.282913165266106
7.875,IMU0,0.01904296875,-0.49658203125,0.009765625,1.2605042016806722,-301.2605042016807,-7.352941176470589
7.885,IMU0,0.0263671875,-0.49267578125,0.01416015625,1.050420168067227,-301.05042016806726,-6.442577030812325
7.895,IMU0,0.03515625,-0.49658203125,0.03369140625,1.400560224089636,-299.5098039215686,-5.6722689075630255
7.905,IMU0,0.0390625,-0.50927734375,0.00927734375,1.8207282913165266,-299.22969187675073,-5.392156862745098
7.915,IMU0,0.04052734375,-0.4853515625,0.025390625,1.9607843137254903,-299.6498599439776,-6.372549019607844
7.925,IMU0,0.029296875,-0.49169921875,0.02001953125,1.8207282913165266,-299.6498599439776,-5.8123249299719895
7.935,IMU0,0.03125,-0.48583984375,0.0224609375,1.4705882352941178,-299.85994397759106,-6.162464985994398
7.945,IMU0,0.02880859375,-0.494140625,0.01806640625,2.2408963585434174,-299.85994397759106,-6.0924369747899165
7.955,IMU0,0.03173828125,-0.48583984375,0.03125,1.8907563025210086,-300.5602240896359,-6.022408963585434
7.965,IMU0,0.0419921875,-0.50439453125,0.001953125,1.8207282913165266,-300.21008403361344,-5.46218487394958
7.975,IMU0,0.0322265625,-0.4873046875,0.04052734375,0.42016806722689076,-301.6106442577031,-6.722689075630252
7.985,IMU0,0.0283203125,-0.48828125,0.02880859375,1.4705882352941178,-302.03081232492997,-5.8123249299719895
7.995,IMU0,0.0390625,-0.4970703125,0.02197265625,2.170868347338936,-302.3809523809524,-5.9523809523809526
8.005,IMU0,0.021484375,-0.48193359375,0.0048828125,1.1904761904761905,-303.71148459383755,-6.722689075630252
8.015,IMU0,0.03857421875,-0.4921875,0.04052734375,1.6106442577030813,-304.2717086834734,-5.9523809523809526
8.025,IMU0,0.04296875,-0.48779296875,0.00341796875,1.5406162464985995,-304.4817927170869,-6.442577030812325
8.035,IMU0,0.0234375,-0.48193359375,0.04345703125,1.8907563025210086,-305.6022408963586,-6.722689075630252
8.045,IMU0,0.037109375,-0.4755859375,-0.00439453125,3.641456582633053,-304.76190476190476,-5.602240896358544
8.055,IMU0,0.03955078125,-0.4873046875,0.0419921875,0.9103641456582633,-307.21288515406167,-6.0924369747899165
8.065,IMU0,0.03369140625,-0.47802734375,0.05810546875,1.8907563025210086,-306.9327731092437,-6.792717086834735
8.075,IMU0,0.02880859375,-0.48291015625,0.01611328125,2.3109243697478994,-307.98319327731093,-6.862745098039216
8.085,IMU0,0.02783203125,-0.48291015625,0.02392578125,3.2913165266106446,-307.63305322128855,-6.792717086834735
8.095,IMU0,0.02587890625,-0.48388671875,0.02783203125,2.450980392156863,-307.703081232493,-6.23249299719888
8.105,IMU0,0.02783203125,-0.47412109375,0.0263671875,1.1904761904761905,-306.7927170868347,-6.442577030812325
8.115,IMU0,0.046875,-0.478515625,0.00634765625,2.380952380952381,-306.8627450980392,-5.9523809523809526
8.125,IMU0,0.0302734375,-0.47216796875,0.0068359375,1.6106442577030813,-306.7226890756303,-6.302521008403362
8.135,IMU0,0.02783203125,-0.47509765625,0.060546875,1.6106442577030813,-306.51260504201684,-6.0924369747899165
8.145,IMU0,0.03857421875,-0.4736328125,-0.001953125,3.711484593837535,-306.8627450980392,-5.602240896358544
8.155,IMU0,0.021484375,-0.46875,0.0400390625,2.100840336134454,-307.7731092436975,-6.722689075630252
8.165,IMU0,0.0244140625,-0.47314453125,0.03125,3.711484593837535,-307.07282913165267,-5.46218487394958
8.175,IMU0,0.0400390625,-0.46240234375,-0.0126953125,3.711484593837535,-306.51260504201684,-5.2521008403361344
8.185,IMU0,0.0380859375,-0.47900390625,0.05078125,1.2605042016806722,-308.4733893557423,-5.9523809523809526
8.195,IMU0,0.009765625,-0.47412109375,0.03125,3.151260504201681,-308.12324929971993,-6.582633053221289
8.205,IMU0,0.01806640625,-0.46044921875,0.00537109375,4.621848739495799,-307.4229691876751,-5.182072829131653
8.215,IMU0,0.04345703125,-0.47265625,0.029296875,3.011204481792717,-308.1932773109244,-4.411764705882353
8.225,IMU0,0.03173828125,-0.4736328125,0.01806640625,3.8515406162464987,-308.68347338935575,-6.0924369747899165
8.235,IMU0,0.0205078125,-0.46728515625,0.015625,2.8711484593837535,-309.24369747899163,-5.9523809523809526
8.245,IMU0,0.029296875,-0.47265625,0.01025390625,3.151260504201681,-309.03361344537814,-5.5322128851540615
8.255,IMU0,0.029296875,-0.470703125,0.05078125,2.9411764705882355,-310.22408963585434,-5.882352941176471
8.265,IMU0,0.02392578125,-0.458984375,-0.005859375,3.781512605042017,-309.24369747899163,-6.0924369747899165
8.275,IMU0,0.01611328125,-0.47119140625,0.0546875,2.100840336134454,-311.2745098039216,-6.23249299719888
8.285,IMU0,0.029296875,-0.46533203125,0.03369140625,4.481792717086835,-310.99439775910366,-5.8123249299719895
8.295,IMU0,0.03173828125,-0.46435546875,-0.01025390625,4.551820728291316,-311.1344537815126,-6.23249299719888
8.305,IMU0,0.01708984375,-0.4560546875,0.0654296875,2.380952380952381,-313.65546218487395,-6.792717086834735
8.315,IMU0,0.03076171875,-0.458984375,0.02001953125,4.621848739495799,-312.8151260504202,-6.23249299719888
8.325,IMU0,0.041015625,-0.45263671875,-0.0029296875,3.711484593837535,-313.515406162465,-7.42296918767507
8.335,IMU0,0.0166015625,-0.46142578125,0.05029296875,1.6106442577030813,-314.9859943977591,-7.212885154061625
8.345,IMU0,0.00341796875,-0.45556640625,0.0439453125,3.2913165266106446,-315.1260504201681,-7.42296918767507
8.355,IMU0,0.009765625,-0.4580078125,0.00732421875,4.411764705882353,-314.07563025210084,-6.862745098039216
8.365,IMU0,0.037109375,-0.45654296875,0.0244140625,2.8711484593837535,-314.7058823529412,-5.882352941176471
8.375,IMU0,0.04296875,-0.4638671875,0.03271484375,2.801120448179272,-315.6862745098039,-6.372549019607844
8.385,IMU0,0.01220703125,-0.45458984375,0.02294921875,3.9215686274509807,-316.9467787114846,-8.333333333333334
8.395,IMU0,0.0322265625,-0.45654296875,0.01806640625,2.2408963585434174,-317.64705882352945,-6.512605042016807
8.405,IMU0,0.01953125,-0.451171875,0.052734375,2.450980392156863,-318.8375350140056,-7.563025210084034
8.415,IMU0,0.01611328125,-0.447265625,0.01806640625,3.781512605042017,-317.64705882352945,-7.633053221288516
8.425,IMU0,0.02294921875,-0.45263671875,0.0078125,2.450980392156863,-318.06722689075633,-7.212885154061625
8.435,IMU0,0.02197265625,-0.4501953125,0.04296875,1.3305322128851542,-319.3977591036415,-7.563025210084034
8.445,IMU0,0.0205078125,-0.44873046875,0.0537109375,2.3109243697478994,-318.9775910364146,-7.703081232492997
8.455,IMU0,0.0166015625,-0.4375,-0.01513671875,3.2913165266106446,-318.2072829131653,-7.843137254901961
8.465,IMU0,0.02587890625,-0.4453125,0.0458984375,0.7703081232492998,-318.9775910364146,-6.792717086834735
8.475,IMU0,0.03369140625,-0.46533203125,0.05810546875,2.5910364145658265,-318.5574229691877,-7.633053221288516
8.485,IMU0,0.01708984375,-0.45703125,-0.01123046875,3.781512605042017,-318.5574229691877,-8.893557422969188
8.495,IMU0,0.0185546875,-0.4462890625,0.03662109375,0.8403361344537815,-320.5182072829132,-7.913165266106443
8.505,IMU0,0.0302734375,-0.451171875,0.0439453125,2.3109243697478994,-320.30812324929974,-7.212885154061625
8.515,IMU0,0.01708984375,-0.4384765625,0.01513671875,2.3109243697478994,-320.0980392156863,-8.893557422969188
8.525,IMU0,0.025390625,-0.44287109375,0.02294921875,2.100840336134454,-321.35854341736695,-7.773109243697479
8.535,IMU0,0.02978515625,-0.439453125,0.03173828125,1.7507002801120448,-321.49859943977594,-8.053221288515406
8.545,IMU0,0.01904296875,-0.43359375,0.015625,2.5910364145658265,-320.1680672268908,-7.703081232492997
8.555,IMU0,0.01708984375,-0.443359375,0.04443359375,1.9607843137254903,-320.6582633053221,-7.282913165266106
8.565,IMU0,0.01904296875,-0.4423828125,0.02001953125,1.9607843137254903,-319.9579831932773,-7.773109243697479
8.575,IMU0,0.0244140625,-0.44140625,0.025390625,2.450980392156863,-320.7983193277311,-7.843137254901961
8.585,IMU0,0.02587890625,-0.435546875,0.02197265625,3.2913165266106446,-320.23809523809524,-7.492997198879552
8.595,IMU0,0.029296875,-0.43994140625,0.0537109375,2.6610644257703084,-321.1484593837535,-7.42296918767507
8.605,IMU0,0.0166015625,-0.4423828125,-0.00341796875,4.481792717086835,-320.37815126050424,-8.473389355742297
8.615,IMU0,0.0205078125,-0.439453125,0.0224609375,2.030812324929972,-322.12885154061627,-8.19327731092437
8.625,IMU0,0.03369140625,-0.44384765625,0.0478515625,1.9607843137254903,-321.7787114845938,-7.42296918767507
8.635,IMU0,0.02392578125,-0.43310546875,0.01171875,2.73109243697479,-321.49859943977594,-8.403361344537815
8.645,IMU0,-0.00244140625,-0.42919921875,0.00244140625,1.8907563025210086,-321.9187675070028,-8.473389355742297
8.655,IMU0,0.01416015625,-0.42919921875,0.041015625,1.1204481792717087,-322.54901960784315,-6.862745098039216
8.665,IMU0,0.0361328125,-0.43701171875,0.03857421875,2.380952380952381,-321.7787114845938,-6.722689075630252
8.675,IMU0,0.01611328125,-0.4267578125,-0.00732421875,2.5210084033613445,-321.1484593837535,-8.053221288515406
8.685,IMU0,0.021484375,-0.431640625,0.03955078125,0.700280112044818,-322.7591036414566,-6.932773109243698
8.695,IMU0,0.029296875,-0.43798828125,0.0361328125,2.2408963585434174,-323.03921568627453,-6.652661064425771
8.705,IMU0,0.0078125,-0.4287109375,0.0283203125,2.380952380952381,-324.71988795518206,-6.862745098039216
8.715,IMU0,0.03125,-0.43212890625,0.05126953125,3.151260504201681,-325.0700280112045,-6.302521008403362
8.725,IMU0,0.0205078125,-0.42431640625,-0.0107421875,4.481792717086835,-324.5098039215686,-7.703081232492997
8.735,IMU0,0.00537109375,-0.42919921875,0.05224609375,1.9607843137254903,-325.98039215686276,-7.352941176470589
8.745,IMU0,0.02392578125,-0.42529296875,0.037109375,3.151260504201681,-325.28011204481794,-7.212885154061625
8.755,IMU0,0.02197265625,-0.423828125,0.01220703125,3.011204481792717,-326.47058823529414,-7.703081232492997
8.765,IMU0,0.0224609375,-0.4208984375,0.03564453125,2.801120448179272,-326.47058823529414,-8.053221288515406
8.775,IMU0,0.0234375,-0.4296875,0.03857421875,3.431372549019608,-326.9607843137255,-7.983193277310924
8.785,IMU0,0.0107421875,-0.41552734375,0.0107421875,3.431372549019608,-327.10084033613447,-8.753501400560225
8.795,IMU0,0.009765625,-0.416015625,0.05712890625,1.3305322128851542,-328.5014005602241,-8.473389355742297
8.805,IMU0,0.03076171875,-0.42431640625,0.01904296875,3.2913165266106446,-327.8011204481793,-7.983193277310924
8.815,IMU0,0.029296875,-0.4248046875,0.025390625,1.8207282913165266,-329.4817927170869,-8.473389355742297
8.825,IMU0,0.00927734375,-0.41796875,0.0458984375,1.9607843137254903,-329.06162464985994,-9.103641456582633
8.835,IMU0,0.01220703125,-0.4189453125,0.02734375,2.5910364145658265,-329.4117647058824,-8.19327731092437
8.845,IMU0,0.01318359375,-0.41455078125,0.05029296875,2.2408963585434174,-329.9719887955182,-8.123249299719888
8.855,IMU0,0.02587890625,-0.4306640625,0.01708984375,3.361344537815126,-330.1120448179272,-7.563025210084034
8.865,IMU0,0.0234375,-0.41845703125,0.025390625,1.5406162464985995,-330.672268907563,-7.843137254901961
8.875,IMU0,0.01513671875,-0.42138671875,0.041015625,2.100840336134454,-330.7422969187675,-7.352941176470589
8.885,IMU0,0.02587890625,-0.4208984375,0.01416015625,2.030812324929972,-330.7422969187675,-7.212885154061625
8.895,IMU0,0.02294921875,-0.41943359375,0.03515625,1.3305322128851542,-331.0924369747899,-7.633053221288516
8.905,IMU0,0.02197265625,-0.4140625,0.046875,1.680672268907563,-331.44257703081234,-7.212885154061625
8.915,IMU0,0.021484375,-0.41015625,0.0126953125,2.9411764705882355,-331.02240896358546,-7.142857142857143
8.925,IMU0,0.01904296875,-0.40673828125,0.02490234375,1.5406162464985995,-331.0924369747899,-7.212885154061625
8.935,IMU0,0.02001953125,-0.412109375,0.0390625,1.4705882352941178,-331.2324929971989,-7.142857142857143
8.945,IMU0,0.02783203125,-0.4052734375,0.02490234375,3.081232492997199,-331.0924369747899,-6.932773109243698
8.955,IMU0,0.01708984375,-0.39794921875,0.00927734375,2.030812324929972,-331.0924369747899,-7.212885154061625
8.965,IMU0,0.02001953125,-0.4140625,0.08056640625,1.8207282913165266,-331.0924369747899,-6.302521008403362
8.975,IMU0,0.0244140625,-0.40380859375,-0.001953125,3.8515406162464987,-329.2717086834734,-6.722689075630252
8.985,IMU0,0.009765625,-0.4033203125,0.00537109375,1.8207282913165266,-330.39215686274514,-7.492997198879552
8.995,IMU0,0.013671875,-0.4130859375,0.06982421875,0.0,-332.00280112044817,-5.882352941176471
9.005,IMU0,0.02734375,-0.41015625,0.0322265625,3.431372549019608,-331.02240896358546,-6.302521008403362
9.015,IMU0,0.01953125,-0.40185546875,-0.00439453125,2.801120448179272,-331.8627450980392,-7.352941176470589
9.025,IMU0,0.0185546875,-0.400390625,-0.00341796875,4.271708683473389,-331.7927170868347,-6.722689075630252
9.035,IMU0,0.01171875,-0.40576171875,0.0205078125,2.030812324929972,-333.68347338935575,-7.002801120448179
9.045,IMU0,0.0205078125,-0.40576171875,0.0595703125,2.450980392156863,-334.3837535014006,-6.862745098039216
9.055,IMU0,0.0185546875,-0.40966796875,0.01904296875,3.361344537815126,-334.5238095238095,-7.282913165266106
9.065,IMU0,0.00537109375,-0.39501953125,0.0146484375,3.151260504201681,-335.0140056022409,-7.142857142857143
9.075,IMU0,0.02001953125,-0.40087890625,0.06103515625,2.2408963585434174,-335.5742296918768,-6.372549019607844
9.085,IMU0,0.0185546875,-0.40185546875,0.033203125,3.991596638655462,-333.8935574229692,-6.932773109243698
9.095,IMU0,0.01220703125,-0.39697265625,0.01513671875,3.5714285714285716,-335.5742296918768,-6.582633053221289
9.105,IMU0,0.01953125,-0.39501953125,0.05322265625,2.450980392156863,-336.34453781512605,-6.512605042016807
9.115,IMU0,0.01953125,-0.4052734375,0.01611328125,3.711484593837535,-336.34453781512605,-6.442577030812325
9.125,IMU0,0.005859375,-0.3916015625,0.03173828125,1.680672268907563,-337.11484593837537,-7.142857142857143
9.135,IMU0,0.01708984375,-0.39208984375,0.04541015625,2.030812324929972,-336.9747899159664,-5.882352941176471
9.145,IMU0,0.0263671875,-0.39453125,0.0107421875,2.380952380952381,-335.7843137254902,-5.9523809523809526
9.155,IMU0,0.01611328125,-0.39013671875,0.044921875,1.3305322128851542,-336.8347338935574,-7.002801120448179
9.165,IMU0,0.0107421875,-0.3876953125,0.0400390625,1.4705882352941178,-336.9047619047619,-6.512605042016807
9.175,IMU0,0.02392578125,-0.3876953125,0.02685546875,2.2408963585434174,-336.9047619047619,-6.23249299719888
9.185,IMU0,0.01611328125,-0.3935546875,0.025390625,2.450980392156863,-337.04481792717087,-6.652661064425771
9.195,IMU0,0.00537109375,-0.390625,0.046875,2.450980392156863,-336.48459383753504,-6.302521008403362
9.205,IMU0,0.01220703125,-0.3896484375,0.0166015625,2.3109243697478994,-335.0140056022409,-5.8123249299719895
9.215,IMU0,0.021484375,-0.38720703125,0.03857421875,2.3109243697478994,-335.22408963585434,-5.602240896358544
9.225,IMU0,0.02880859375,-0.38671875,0.0478515625,2.5910364145658265,-335.7142857142857,-5.6722689075630255
9.235,IMU0,0.0107421875,-0.3955078125,0.03564453125,3.991596638655462,-335.7843137254902,-6.792717086834735
9.245,IMU0,0.0068359375,-0.380859375,0.00146484375,3.8515406162464987,-336.2044817927171,-6.23249299719888
9.255,IMU0,0.01953125,-0.3916015625,0.06982421875,2.450980392156863,-337.11484593837537,-5.742296918767507
9.265,IMU0,0.0185546875,-0.38525390625,0.0244140625,4.201680672268908,-335.5742296918768,-6.302521008403362
9.275,IMU0,0.0126953125,-0.38525390625,0.02099609375,3.711484593837535,-336.34453781512605,-6.0924369747899165
9.285,IMU0,0.01416015625,-0.39404296875,0.03564453125,3.081232492997199,-336.41456582633054,-6.0924369747899165
9.295,IMU0,0.01123046875,-0.380859375,0.033203125,3.5714285714285716,-336.41456582633054,-6.442577030812325
9.305,IMU0,0.02197265625,-0.384765625,0.017578125,4.061624649859944,-336.2745098039216,-5.742296918767507
9.315,IMU0,0.0263671875,-0.37890625,0.05908203125,3.2212885154061626,-336.764705882353,-5.9523809523809526
9.325,IMU0,0.00439453125,-0.376953125,0.02490234375,4.831932773109244,-335.92436974789916,-7.072829131652662
9.335,IMU0,0.0205078125,-0.3896484375,0.05810546875,2.9411764705882355,-337.11484593837537,-5.882352941176471
9.345,IMU0,0.0263671875,-0.38037109375,0.03076171875,4.69187675070028,-337.04481792717087,-6.162464985994398
9.355,IMU0,0.00830078125,-0.37890625,0.01708984375,3.5014005602240896,-338.72549019607845,-6.652661064425771
9.365,IMU0,0.01513671875,-0.37646484375,0.04541015625,3.2913165266106446,-338.8655462184874,-6.302521008403362
9.375,IMU0,0.0283203125,-0.37939453125,0.017578125,4.061624649859944,-338.9355742296919,-6.302521008403362
9.385,IMU0,0.01220703125,-0.37744140625,0.0478515625,3.151260504201681,-340.26610644257704,-7.142857142857143
9.395,IMU0,0.0087890625,-0.37646484375,0.009765625,4.131652661064426,-339.9859943977591,-6.512605042016807
9.405,IMU0,0.02685546875,-0.37158203125,0.044921875,1.680672268907563,-340.89635854341736,-6.23249299719888
9.415,IMU0,0.0166015625,-0.3876953125,0.0263671875,2.5910364145658265,-340.26610644257704,-7.212885154061625
9.425,IMU0,0.00439453125,-0.37158203125,0.04150390625,2.5210084033613445,-340.7563025210084,-7.142857142857143
9.435,IMU0,0.0205078125,-0.37890625,0.02685546875,2.6610644257703084,-340.546218487395,-6.022408963585434
9.445,IMU0,0.01806640625,-0.37255859375,0.02783203125,2.8711484593837535,-340.546218487395,-6.652661064425771
9.455,IMU0,0.00244140625,-0.36767578125,0.02880859375,2.170868347338936,-340.1260504201681,-6.792717086834735
9.465,IMU0,0.01611328125,-0.375,0.04443359375,3.711484593837535,-339.4257703081233,-5.742296918767507
9.475,IMU0,0.02099609375,-0.37109375,0.0146484375,3.151260504201681,-339.07563025210084,-6.302521008403362
9.485,IMU0,0.01220703125,-0.3779296875,0.0546875,2.9411764705882355,-340.19607843137254,-7.002801120448179
9.495,IMU0,0.00244140625,-0.36767578125,0.01171875,3.5014005602240896,-340.0560224089636,-6.652661064425771
9.505,IMU0,0.01318359375,-0.37451171875,0.05029296875,3.151260504201681,-340.6162464985995,-6.722689075630252
9.515,IMU0,0.0146484375,-0.3671875,-0.0029296875,4.131652661064426,-340.19607843137254,-7.002801120448179
9.525,IMU0,0.01220703125,-0.3720703125,0.05029296875,3.081232492997199,-341.9467787114846,-7.002801120448179
9.535,IMU0,0.0048828125,-0.36865234375,0.0234375,4.481792717086835,-341.1064425770308,-6.862745098039216
9.545,IMU0,-0.00537109375,-0.36474609375,0.041015625,3.8515406162464987,-340.96638655462186,-7.42296918767507
9.555,IMU0,0.01220703125,-0.36865234375,0.0400390625,4.061624649859944,-340.546218487395,-6.302521008403362
9.565,IMU0,0.0224609375,-0.375,0.0205078125,5.112044817927171,-340.546218487395,-6.512605042016807
9.575,IMU0,0.00048828125,-0.36181640625,0.044921875,3.781512605042017,-341.7366946778712,-7.983193277310924
9.585,IMU0,0.0068359375,-0.361328125,0.0205078125,4.69187675070028,-340.8263305322129,-7.352941176470589
9.595,IMU0,0.01318359375,-0.36181640625,0.03173828125,4.201680672268908,-341.6666666666667,-7.282913165266106
9.605,IMU0,-0.0048828125,-0.3662109375,0.0537109375,4.341736694677872,-341.1064425770308,-7.843137254901961
9.615,IMU0,0.0107421875,-0.35693359375,0.017578125,5.112044817927171,-339.4957983193277,-7.212885154061625
9.625,IMU0,0.01708984375,-0.36279296875,0.02197265625,3.641456582633053,-340.6862745098039,-7.352941176470589
9.635,IMU0,-0.00634765625,-0.35546875,0.05322265625,3.361344537815126,-340.19607843137254,-8.473389355742297
9.645,IMU0,0.01025390625,-0.361328125,0.0361328125,4.481792717086835,-339.5658263305322,-7.212885154061625
9.655,IMU0,-0.0087890625,-0.357421875,0.0419921875,3.2212885154061626,-340.19607843137254,-9.243697478991598
9.665,IMU0,0.00244140625,-0.36181640625,0.0419921875,3.151260504201681,-339.5658263305322,-7.563025210084034
9.675,IMU0,0.02783203125,-0.359375,0.01513671875,3.2913165266106446,-338.65546218487395,-7.492997198879552
9.685,IMU0,0.009765625,-0.35595703125,0.0322265625,2.450980392156863,-339.4257703081233,-8.61344537815126
9.695,IMU0,-0.00341796875,-0.357421875,0.05224609375,2.170868347338936,-339.9859943977591,-8.403361344537815
9.705,IMU0,0.0048828125,-0.35107421875,0.04736328125,3.2212885154061626,-340.19607843137254,-7.633053221288516
9.715,IMU0,0.0185546875,-0.3623046875,0.021484375,3.5714285714285716,-339.84593837535016,-7.563025210084034
9.725,IMU0,0.0087890625,-0.3564453125,0.02490234375,1.8907563025210086,-340.89635854341736,-8.263305322128852
9.735,IMU0,0.01171875,-0.34912109375,0.0615234375,1.400560224089636,-340.8263305322129,-7.492997198879552
9.745,IMU0,0.00927734375,-0.35107421875,0.01318359375,2.801120448179272,-340.0560224089636,-7.703081232492997
9.755,IMU0,0.005859375,-0.34619140625,0.0439453125,1.8207282913165266,-340.26610644257704,-7.773109243697479
9.765,IMU0,0.0185546875,-0.353515625,0.03564453125,0.9803921568627452,-340.89635854341736,-7.212885154061625
9.775,IMU0,0.0087890625,-0.35205078125,0.025390625,1.5406162464985995,-340.6162464985995,-8.123249299719888
9.785,IMU0,0.01416015625,-0.34814453125,0.0322265625,1.2605042016806722,-340.7563025210084,-7.212885154061625
9.795,IMU0,0.0224609375,-0.35302734375,0.048828125,1.7507002801120448,-340.6862745098039,-7.42296918767507
9.805,IMU0,0.00048828125,-0.34912109375,0.01513671875,2.030812324929972,-340.4761904761905,-8.333333333333334
9.815,IMU0,0.00390625,-0.349609375,0.05419921875,0.7703081232492998,-341.1764705882353,-7.212885154061625
9.825,IMU0,0.02490234375,-0.35498046875,0.02734375,1.9607843137254903,-340.8263305322129,-7.002801120448179
9.835,IMU0,0.00634765625,-0.345703125,0.0234375,1.1204481792717087,-341.52661064425774,-8.403361344537815
9.845,IMU0,-0.00390625,-0.34033203125,0.05029296875,0.9103641456582633,-342.7170868347339,-7.352941176470589
9.855,IMU0,0.0107421875,-0.34716796875,0.02294921875,2.380952380952381,-342.296918767507,-6.792717086834735
9.865,IMU0,0.0078125,-0.35009765625,0.04638671875,2.8711484593837535,-341.8767507002801,-7.282913165266106
9.875,IMU0,0.0078125,-0.34912109375,0.01416015625,2.73109243697479,-341.6666666666667,-6.862745098039216
9.885,IMU0,0.0048828125,-0.34619140625,0.0283203125,2.170868347338936,-341.31652661064425,-7.492997198879552
9.895,IMU0,-0.00732421875,-0.3447265625,0.0224609375,1.7507002801120448,-340.89635854341736,-7.352941176470589
9.905,IMU0,0.01123046875,-0.34765625,0.0546875,2.170868347338936,-340.26610644257704,-6.512605042016807
9.915,IMU0,0.01513671875,-0.34228515625,0.01611328125,3.361344537815126,-339.0056022408964,-6.932773109243698
9.925,IMU0,-0.009765625,-0.33984375,0.017578125,2.6610644257703084,-339.14565826330534,-7.913165266106443
9.935,IMU0,0.0009765625,-0.3330078125,0.0654296875,2.73109243697479,-339.0056022408964,-6.512605042016807
9.945,IMU0,0.02490234375,-0.34619140625,0.00537109375,4.831932773109244,-338.4453781512605,-6.442577030812325
9.955,IMU0,0.009765625,-0.33447265625,0.02197265625,2.801120448179272,-339.5658263305322,-8.19327731092437
9.965,IMU0,0.001953125,-0.3369140625,0.04931640625,2.3109243697478994,-339.9859943977591,-7.633053221288516
9.975,IMU0,0.00634765625,-0.33935546875,0.03271484375,3.011204481792717,-339.7058823529412,-7.633053221288516
9.985,IMU0,0.01513671875,-0.3369140625,0.03466796875,3.5014005602240896,-339.3557422969188,-7.843137254901961
9.995,IMU0,0.01708984375,-0.345703125,0.01171875,3.8515406162464987,-339.7058823529412,-7.843137254901961
10.005,IMU0,-0.001953125,-0.34130859375,0.060546875,2.73109243697479,-340.33613445378154,-8.543417366946779
10.015,IMU0,-0.0068359375,-0.33203125,0.04931640625,3.9215686274509807,-339.4257703081233,-7.983193277310924
10.025,IMU0,0.02294921875,-0.33447265625,0.01025390625,3.781512605042017,-339.2857142857143,-7.282913165266106
10.035,IMU0,0.009765625,-0.33056640625,0.03955078125,2.030812324929972,-340.26610644257704,-8.683473389355743
10.045,IMU0,-0.0068359375,-0.33837890625,0.07666015625,3.431372549019608,-340.19607843137254,-8.263305322128852
10.055,IMU0,0.0126953125,-0.3271484375,0.005859375,5.112044817927171,-339.6358543417367,-7.212885154061625
10.065,IMU0,0.01904296875,-0.33544921875,0.03076171875,2.380952380952381,-341.8767507002801,-7.563025210084034
10.075,IMU0,0.00439453125,-0.3349609375,0.07080078125,2.2408963585434174,-342.7170868347339,-7.843137254901961
10.085,IMU0,0.00537109375,-0.333984375,0.013671875,3.2913165266106446,-341.52661064425774,-7.352941176470589
10.095,IMU0,0.021484375,-0.33203125,0.03515625,2.2408963585434174,-343.1372549019608,-6.372549019607844
10.105,IMU0,0.01611328125,-0.33349609375,0.0478515625,1.3305322128851542,-344.467787114846,-7.352941176470589
10.115,IMU0,0.00390625,-0.33740234375,0.0361328125,3.011204481792717,-344.467787114846,-7.072829131652662
10.125,IMU0,0.0166015625,-0.32763671875,0.0234375,1.7507002801120448,-345.1680672268908,-6.372549019607844
10.135,IMU0,0.0166015625,-0.33544921875,0.04833984375,1.680672268907563,-346.1484593837535,-6.162464985994398
10.145,IMU0,0.00048828125,-0.3251953125,0.0439453125,2.030812324929972,-346.7086834733894,-6.722689075630252
10.155,IMU0,0.00634765625,-0.32568359375,0.0107421875,2.170868347338936,-346.42857142857144,-5.742296918767507
10.165,IMU0,0.01123046875,-0.32666015625,0.0537109375,0.9803921568627452,-347.4089635854342,-5.5322128851540615
10.175,IMU0,0.001953125,-0.32421875,0.05078125,2.5910364145658265,-346.2885154061625,-5.882352941176471
10.185,IMU0,0.00244140625,-0.32177734375,0.02490234375,3.5014005602240896,-346.5686274509804,-5.5322128851540615
10.195,IMU0,0.0048828125,-0.3251953125,0.037109375,3.011204481792717,-347.19887955182077,-5.2521008403361344
10.205,IMU0,0.00927734375,-0.3212890625,0.0361328125,2.6610644257703084,-347.61904761904765,-5.2521008403361344
10.215,IMU0,0.0126953125,-0.32470703125,0.04248046875,3.011204481792717,-347.3389355742297,-5.8123249299719895
10.225,IMU0,0.001953125,-0.31494140625,0.0263671875,2.801120448179272,-347.2689075630252,-5.882352941176471
10.235,IMU0,0.0029296875,-0.31591796875,0.0380859375,2.73109243697479,-347.47899159663865,-5.5322128851540615
10.245,IMU0,0.00830078125,-0.32177734375,0.0361328125,2.801120448179272,-347.4089635854342,-5.6722689075630255
10.255,IMU0,-0.0009765625,-0.31689453125,0.02392578125,2.5210084033613445,-346.6386554621849,-6.302521008403362
10.265,IMU0,0.0048828125,-0.32275390625,0.0439453125,2.450980392156863,-347.7591036414566,-5.46218487394958
10.275,IMU0,0.01025390625,-0.3203125,0.037109375,2.801120448179272,-346.7086834733894,-5.8123249299719895
10.285,IMU0,-0.005859375,-0.314453125,0.0458984375,1.4705882352941178,-347.54901960784315,-5.9523809523809526
10.295,IMU0,0.0224609375,-0.31982421875,0.0244140625,2.5210084033613445,-346.8487394957983,-5.322128851540617
10.305,IMU0,0.01416015625,-0.32763671875,0.02783203125,2.100840336134454,-347.7591036414566,-6.23249299719888
10.315,IMU0,-0.0107421875,-0.314453125,0.05224609375,1.4705882352941178,-348.3893557422969,-6.932773109243698
10.325,IMU0,0.0009765625,-0.31396484375,0.0322265625,2.3109243697478994,-348.80952380952385,-6.162464985994398
10.335,IMU0,0.02099609375,-0.31787109375,0.04248046875,1.4705882352941178,-349.85994397759106,-6.162464985994398
10.345,IMU0,-0.00244140625,-0.31591796875,0.03369140625,1.8207282913165266,-349.3697478991597,-7.492997198879552
10.355,IMU0,-0.00341796875,-0.31103515625,0.0419921875,1.7507002801120448,-349.4397759103642,-6.442577030812325
10.365,IMU0,0.02490234375,-0.3232421875,0.02880859375,1.4705882352941178,-349.2997198879552,-6.302521008403362
10.375,IMU0,0.01025390625,-0.31982421875,0.0537109375,0.9803921568627452,-350.0700280112045,-7.282913165266106
