ts,Ax,Ay,Az,Gx,Gy,Gz,T,P,velocity,q0_estimated,q1_estimated,q2_estimated,q3_estimated,filtered_altitude_AGL,filtered_acceleration
-0.76,,,,,,,,,0.294,,,,,,
-0.755,-0.0488,-0.5078,-0.0044,1.0504,-1.4706,-1.8207,35.3,100129.0,,,,,,,
-0.75,,,,,,,,,0.301,-6.646,7.259,-1.513,-0.911,0.65,-0.038
-0.745,-0.0518,-0.5073,-0.0073,1.0504,-1.3305,-1.8207,35.3,100137.0,,,,,,,
-0.74,,,,,,,,,0.308,-6.647,7.258,-1.513,-0.911,0.65,-0.038
-0.735,-0.0518,-0.5054,-0.0059,1.0504,-1.2605,-1.8207,35.3,100104.0,,,,,,,
-0.73,,,,,,,,,0.309,-6.647,7.258,-1.513,-0.912,0.4,-0.028
-0.725,-0.0474,-0.5054,-0.0049,1.0504,-1.3305,-1.8908,35.3,100111.0,,,,,,,
-0.72,,,,,,,,,0.316,-6.647,7.258,-1.512,-0.912,0.65,-0.028
-0.715,-0.0454,-0.5054,-0.0039,1.0504,-1.4706,-1.8207,35.3,100113.0,,,,,,,
-0.71,,,,,,,,,0.319,-6.647,7.258,-1.512,-0.912,0.48,-0.028
-0.705,-0.0469,-0.5068,-0.0049,1.0504,-1.5406,-1.8207,35.3,100111.0,,,,,,,
-0.7,,,,,,,,,0.318,-6.648,7.258,-1.512,-0.913,0.31,-0.028
-0.695,-0.0474,-0.5059,-0.0039,1.0504,-1.6106,-1.7507,35.3,100110.0,,,,,,,
-0.69,,,,,,,,,0.317,-6.648,7.257,-1.511,-0.913,0.31,-0.028
-0.685,-0.0488,-0.5073,-0.0054,1.1204,-1.6106,-1.7507,35.3,100110.0,,,,,,,
-0.68,,,,,,,,,0.32,-6.648,7.257,-1.511,-0.914,0.48,-0.028
-0.675,-0.0483,-0.5078,-0.0063,1.1204,-1.6807,-1.8207,35.3,100133.0,,,,,,,
-0.67,,,,,,,,,0.322,-6.649,7.257,-1.51,-0.914,0.48,-0.028
-0.665,-0.0474,-0.5073,-0.0039,1.1204,-1.6807,-1.8908,35.3,100122.0,,,,,,,
-0.66,,,,,,,,,0.325,-6.649,7.257,-1.51,-0.915,0.48,-0.028
-0.655,-0.0469,-0.5063,-0.0049,1.0504,-1.6106,-1.8207,35.2,100112.0,,,,,,,
-0.65,,,,,,,,,0.327,-6.649,7.256,-1.509,-0.915,0.48,-0.028
-0.645,-0.0464,-0.5049,-0.0063,1.1204,-1.6106,-1.8207,35.3,100124.0,,,,,,,
-0.64,,,,,,,,,0.329,-6.65,7.256,-1.509,-0.915,0.48,-0.038
-0.635,-0.0483,-0.5044,-0.0073,1.0504,-1.5406,-1.7507,35.2,100139.0,,,,,,,
-0.63,,,,,,,,,0.329,-6.65,7.256,-1.508,-0.916,0.39,-0.038
-0.625,-0.0527,-0.5063,-0.0068,1.0504,-1.5406,-1.7507,35.3,100122.0,,,,,,,
-0.62,,,,,,,,,0.327,-6.65,7.256,-1.508,-0.916,0.31,-0.038
-0.615,-0.0518,-0.5044,-0.0063,0.9804,-1.4706,-1.8207,35.3,100116.0,,,,,,,
-0.61,,,,,,,,,0.31,-6.65,7.256,-1.507,-0.917,-0.44,-0.038
-0.605,-0.0498,-0.5078,-0.0059,1.1204,-1.3305,-1.8207,35.3,100116.0,,,,,,,
-0.6,,,,,,,,,0.292,-6.651,7.255,-1.507,-0.917,-0.44,-0.038
-0.595,-0.0464,-0.5068,-0.0039,1.1204,-1.3305,-1.8207,35.3,100127.0,,,,,,,
-0.59,,,,,,,,,0.275,-6.651,7.255,-1.507,-0.918,-0.44,-0.038
-0.585,-0.0435,-0.5059,-0.0044,1.1204,-1.2605,-1.8908,35.3,100110.0,,,,,,,
-0.58,,,,,,,,,0.259,-6.651,7.255,-1.506,-0.918,-0.45,-0.038
-0.575,-0.0493,-0.5063,-0.0059,1.1204,-1.1905,-1.8207,35.3,100115.0,,,,,,,
-0.57,,,,,,,,,0.242,-6.651,7.255,-1.506,-0.918,-0.44,-0.038
-0.565,-0.0513,-0.5059,-0.0068,1.0504,-1.0504,-1.8207,35.3,100111.0,,,,,,,
-0.56,,,,,,,,,0.237,-6.652,7.255,-1.506,-0.918,0.06,-0.038
-0.555,-0.0483,-0.5063,-0.0054,1.1204,-0.7703,-1.8908,35.3,100140.0,,,,,,,
-0.55,,,,,,,,,0.231,-6.652,7.254,-1.505,-0.918,0.06,-0.047
-0.545,-0.0474,-0.5063,-0.0054,1.1204,-0.4902,-1.8908,35.3,100123.0,,,,,,,
-0.54,,,,,,,,,0.226,-6.652,7.254,-1.505,-0.918,0.06,-0.038
-0.535,-0.0444,-0.5059,-0.0034,1.1204,-0.3501,-1.8207,35.3,100122.0,,,,,,,
-0.53,,,,,,,,,0.22,-6.652,7.254,-1.506,-0.918,0.06,-0.038
-0.525,-0.0439,-0.5054,-0.0049,1.0504,-0.1401,-1.8207,35.3,100114.0,,,,,,,
-0.52,,,,,,,,,0.215,-6.653,7.254,-1.506,-0.918,0.06,-0.038
-0.515,-0.0449,-0.5054,-0.0063,0.9104,-0.2101,-1.8207,35.3,100119.0,,,,,,,
-0.51,,,,,,,,,0.21,-6.653,7.254,-1.506,-0.917,0.06,-0.038
-0.505,-0.0518,-0.5068,-0.0044,1.0504,-0.3501,-1.8207,35.3,100118.0,,,,,,,
-0.5,,,,,,,,,0.199,-6.653,7.254,-1.506,-0.917,-0.18,-0.047
-0.495,-0.0498,-0.5068,-0.0063,1.0504,-0.3501,-1.7507,35.3,100124.0,,,,,,,
-0.49,,,,,,,,,0.191,-6.653,7.254,-1.507,-0.916,-0.1,-0.047
-0.485,-0.0483,-0.5049,-0.0073,1.0504,-0.3501,-1.8207,35.3,100094.0,,,,,,,
-0.48,,,,,,,,,0.181,-6.653,7.253,-1.507,-0.916,-0.18,-0.038
-0.475,-0.0469,-0.5068,-0.001,1.1204,-0.3501,-1.8207,35.3,100131.0,,,,,,,
-0.47,,,,,,,,,0.171,-6.653,7.253,-1.507,-0.916,-0.18,-0.047
-0.465,-0.0454,-0.5063,-0.0068,1.1204,-0.3501,-1.8207,35.3,100081.0,,,,,,,
-0.46,,,,,,,,,0.156,-6.653,7.253,-1.507,-0.915,-0.44,-0.038
-0.455,-0.0474,-0.5059,-0.0029,1.0504,-0.3501,-1.8207,35.3,100130.0,,,,,,,
-0.45,,,,,,,,,0.146,-6.653,7.253,-1.508,-0.915,-0.18,-0.038
-0.445,-0.0503,-0.5078,-0.0059,1.0504,-0.2801,-1.8207,35.3,100110.0,,,,,,,
-0.44,,,,,,,,,0.137,-6.653,7.253,-1.508,-0.915,-0.18,-0.047
-0.435,-0.0483,-0.5078,-0.0054,1.1204,-0.1401,-1.8207,35.2,100136.0,,,,,,,
-0.43,,,,,,,,,0.13,-6.654,7.253,-1.508,-0.914,-0.1,-0.038
-0.425,-0.0479,-0.5049,-0.0034,1.1204,-0.07,-1.8207,35.3,100124.0,,,,,,,
-0.42,,,,,,,,,0.121,-6.654,7.253,-1.509,-0.914,-0.18,-0.028
-0.415,-0.0459,-0.5054,-0.0049,1.1204,-0.07,-1.8207,35.3,100123.0,,,,,,,
-0.41,,,,,,,,,0.103,-6.654,7.253,-1.509,-0.913,-0.6,-0.028
-0.405,-0.0479,-0.5034,-0.0044,1.1204,0.0,-1.8207,35.3,100120.0,,,,,,,
-0.4,,,,,,,,,0.086,-6.654,7.252,-1.509,-0.913,-0.6,-0.038
-0.395,-0.0493,-0.5054,-0.0034,1.0504,0.1401,-1.8908,35.3,100119.0,,,,,,,
-0.39,,,,,,,,,0.07,-6.654,7.252,-1.51,-0.912,-0.52,-0.047
-0.385,-0.0532,-0.5073,-0.0054,1.0504,0.4202,-1.8908,35.3,100139.0,,,,,,,
-0.38,,,,,,,,,0.055,-6.654,7.252,-1.51,-0.912,-0.52,-0.047
-0.375,-0.0488,-0.5068,-0.0063,0.9804,0.4202,-1.8908,35.3,100139.0,,,,,,,
-0.37,,,,,,,,,0.04,-6.654,7.252,-1.511,-0.911,-0.52,-0.047
-0.365,-0.0483,-0.5078,-0.0024,1.0504,0.3501,-1.8908,35.3,100131.0,,,,,,,
-0.36,,,,,,,,,0.024,-6.654,7.252,-1.512,-0.91,-0.61,-0.047
-0.355,-0.0483,-0.5078,-0.0029,0.9804,0.4202,-1.8908,35.3,100130.0,,,,,,,
-0.35,,,,,,,,,0.008,-6.654,7.252,-1.512,-0.909,-0.61,-0.028
-0.345,-0.0479,-0.5054,-0.0034,1.0504,0.4202,-1.8908,35.3,100128.0,,,,,,,
-0.34,,,,,,,,,-0.018,-6.654,7.252,-1.513,-0.908,-1.09,-0.028
-0.335,-0.0483,-0.5059,-0.0073,1.0504,0.3501,-1.8908,35.3,100119.0,,,,,,,
-0.33,,,,,,,,,-0.04,-6.654,7.252,-1.513,-0.907,-0.93,-0.057
-0.325,-0.0503,-0.5063,-0.0024,0.9804,0.2101,-1.8908,35.3,100114.0,,,,,,,
-0.32,,,,,,,,,-0.061,-6.654,7.252,-1.514,-0.907,-0.93,-0.047
-0.315,-0.0454,-0.5078,-0.0029,0.9804,0.2101,-1.8207,35.3,100116.0,,,,,,,
-0.31,,,,,,,,,-0.082,-6.654,7.252,-1.514,-0.906,-0.93,-0.038
-0.305,-0.0488,-0.5068,-0.0015,1.0504,0.07,-1.8908,35.3,100105.0,,,,,,,
-0.3,,,,,,,,,-0.103,-6.654,7.252,-1.515,-0.905,-0.93,-0.028
-0.295,-0.0464,-0.5063,-0.0049,1.0504,-0.1401,-1.8908,35.3,100113.0,,,,,,,
-0.29,,,,,,,,,-0.123,-6.654,7.252,-1.515,-0.905,-0.93,-0.028
-0.285,-0.0454,-0.5088,-0.002,1.0504,-0.3501,-1.9608,35.3,100106.0,,,,,,,
-0.28,,,,,,,,,-0.126,-6.654,7.252,-1.516,-0.904,-0.17,-0.028
-0.275,-0.0503,-0.5078,-0.0059,1.1204,-0.5602,-1.8207,35.2,100126.0,,,,,,,
-0.27,,,,,,,,,-0.124,-6.654,7.252,-1.516,-0.904,0.08,-0.028
-0.265,-0.0498,-0.5103,-0.0034,1.0504,-0.7703,-1.8908,35.3,100101.0,,,,,,,
-0.26,,,,,,,,,-0.122,-6.655,7.252,-1.516,-0.903,0.08,-0.028
-0.255,-0.0522,-0.5132,0.0044,1.1204,-0.7703,-1.8908,35.3,100151.0,,,,,,,
-0.25,,,,,,,,,-0.117,-6.655,7.251,-1.516,-0.903,0.25,-0.028
-0.245,-0.0332,-0.5083,0.0039,1.2605,-1.2605,-1.8908,35.2,100126.0,,,,,,,
-0.24,,,,,,,,,-0.111,-6.655,7.251,-1.516,-0.903,0.25,-0.009
-0.235,-0.0562,-0.5112,-0.0039,1.2605,-1.8207,-1.8207,35.3,100127.0,,,,,,,
-0.23,,,,,,,,,-0.106,-6.655,7.251,-1.516,-0.903,0.25,-0.009
-0.225,-0.0557,-0.5322,0.0171,1.1905,-2.591,-1.8207,35.3,100150.0,,,,,,,
-0.22,,,,,,,,,-0.104,-6.656,7.251,-1.515,-0.904,0.08,0.0
-0.215,-0.1313,-0.9253,-0.0903,0.7703,-2.0308,-1.6106,35.3,100113.0,,,,,,,
-0.21,,,,,,,,,-0.12,-6.656,7.25,-1.514,-0.905,-0.76,0.009
-0.205,-0.0752,-1.2246,0.0957,0.0,-3.8515,-1.0504,35.3,100129.0,,,,,,,
-0.2,,,,,,,,,-0.135,-6.657,7.25,-1.513,-0.906,-0.76,0.038
-0.195,-0.02,-1.332,0.0479,0.3501,-4.4818,-1.0504,35.3,100119.0,,,,,,,
-0.19,,,,,,,,,-0.149,-6.656,7.25,-1.512,-0.908,-0.76,0.057
-0.185,-0.0171,-1.3413,-0.0801,-0.7703,-2.3109,-0.7703,35.3,100131.0,,,,,,,
-0.18,,,,,,,,,-0.163,-6.657,7.25,-1.51,-0.911,-0.76,0.094
-0.175,-0.0693,-1.4302,-0.0273,-0.4202,-0.6303,-0.7703,35.3,100097.0,,,,,,,
-0.17,,,,,,,,,-0.175,-6.656,7.251,-1.51,-0.913,-0.84,0.462
-0.165,-0.0479,-1.4697,0.0254,0.4902,4.902,-0.7003,35.3,100143.0,,,,,,,
-0.16,,,,,,,,,-0.11,-6.655,7.251,-1.51,-0.914,-0.84,8.048
-0.155,-0.0586,-1.4941,-0.0308,1.9608,10.7143,-0.7003,35.3,100102.0,,,,,,,
-0.15,,,,,,,,,0.012,-6.654,7.252,-1.514,-0.911,-0.84,13.824
-0.145,0.0107,-1.5098,0.0337,1.0504,13.7955,-1.4706,35.3,100128.0,,,,,,,
-0.14,,,,,,,,,0.156,-6.653,7.252,-1.522,-0.904,-0.84,15.898
-0.135,-0.0039,-1.5957,0.0464,2.7311,16.0364,-2.8711,35.3,100168.0,,,,,,,
-0.13,,,,,,,,,0.3,-6.651,7.253,-1.53,-0.895,-0.91,16.077
-0.125,0.002,-1.6826,0.0132,2.7311,14.2857,-3.7115,35.2,100112.0,,,,,,,
-0.12,,,,,,,,,0.462,-6.65,7.253,-1.54,-0.883,-0.91,17.792
-0.115,-0.0278,-1.7725,0.0576,1.9608,12.0448,-3.7815,35.3,100100.0,,,,,,,
-0.11,,,,,,,,,0.631,-6.65,7.253,-1.547,-0.872,-0.91,18.555
-0.105,-0.0664,-1.8262,0.0513,2.9412,13.3053,-3.5714,35.3,100150.0,,,,,,,
-0.1,,,,,,,,,0.822,-6.649,7.254,-1.554,-0.863,-0.16,19.026
-0.095,-0.0415,-1.8989,0.0215,2.381,14.3557,-3.7815,35.3,100111.0,,,,,,,
-0.09,,,,,,,,,0.999,-6.648,7.254,-1.561,-0.853,-0.91,19.328
-0.085,-0.0093,-1.9902,0.0669,1.8207,14.916,-3.9916,35.3,100135.0,,,,,,,
-0.08,,,,,,,,,1.222,-6.647,7.254,-1.568,-0.842,0.44,20.986
-0.075,-0.0342,-2.061,0.042,1.3305,14.6359,-3.9216,35.3,100188.0,,,,,,,
-0.07,,,,,,,,,1.432,-6.646,7.255,-1.576,-0.83,-0.91,22.664
-0.065,-0.0747,-2.1143,-0.0342,1.0504,13.4454,-3.6415,35.3,100130.0,,,,,,,
-0.06,,,,,,,,,1.659,-6.644,7.256,-1.584,-0.819,-0.91,24.398
-0.055,-0.083,-2.1421,0.061,1.1204,8.1933,-2.8011,35.3,100179.0,,,,,,,
-0.05,,,,,,,,,1.894,-6.643,7.257,-1.591,-0.809,-1.05,25.434
-0.045,-0.0552,-2.3242,0.0342,1.4006,6.3025,-0.2101,35.3,100197.0,,,,,,,
-0.04,,,,,,,,,2.134,-6.642,7.258,-1.595,-0.803,-1.49,26.839
-0.035,-0.0796,-2.3921,0.0205,0.7003,10.8543,-0.1401,35.3,100170.0,,,,,,,
-0.03,,,,,,,,,2.391,-6.641,7.258,-1.601,-0.799,-1.49,28.601
-0.025,-0.0713,-2.4775,0.0771,0.4202,16.3165,-0.9104,35.3,100049.0,,,,,,,
-0.02,,,,,,,,,2.635,-6.639,7.259,-1.608,-0.793,-2.75,29.967
-0.015,0.0132,-2.5537,0.0742,0.8403,19.4678,-1.4006,35.3,100092.0,,,,,,,
-0.01,,,,,,,,,2.891,-6.637,7.26,-1.619,-0.782,-2.75,30.994
-0.005,0.0249,-2.584,0.0654,-1.0504,19.5378,-2.0308,35.3,100153.0,,,,,,,
0.0,,,,,,,,,3.178,-6.634,7.261,-1.631,-0.77,-1.49,31.531
0.005,-0.019,-2.6318,0.0215,1.2605,15.6162,-2.521,35.3,100097.0,,,,,,,
0.01,,,,,,,,,3.529,9.999,-0.001,0.017,0.0,-2.97,35.046
0.015,-0.0063,-2.6792,0.0996,1.1905,10.5742,-2.9412,35.3,100110.0,,,,,,,
0.02,,,,,,,,,3.893,9.999,-0.001,0.032,0.0,-2.97,36.356
0.025,0.1279,-2.6929,0.0654,1.1905,9.5238,-3.2913,35.2,100071.0,,,,,,,
0.03,,,,,,,,,4.273,9.999,0.0,0.041,-0.001,-1.05,38.006
0.035,-0.1138,-2.6514,0.0703,1.1204,9.3838,-3.4314,35.3,100118.0,,,,,,,
0.04,,,,,,,,,4.668,9.999,0.0,0.05,-0.003,0.65,39.476
0.045,-0.146,-2.6846,-0.0054,1.7507,7.3529,-3.5014,35.3,100110.0,,,,,,,
0.05,,,,,,,,,5.069,9.999,0.0,0.059,-0.004,0.65,40.06
0.055,-0.1333,-2.7002,0.0649,1.5406,9.4538,-3.2913,35.3,100084.0,,,,,,,
0.06,,,,,,,,,5.479,9.999,0.0,0.066,-0.006,0.65,40.983
0.065,-0.0254,-2.7324,0.1245,2.6611,10.7143,-3.3613,35.3,100096.0,,,,,,,
0.07,,,,,,,,,5.893,9.999,0.001,0.075,-0.007,1.74,41.36
0.075,-0.0986,-2.8267,0.0024,3.0112,10.2941,-3.1513,35.3,100126.0,,,,,,,
0.08,,,,,,,,,6.312,9.999,0.002,0.085,-0.008,1.74,41.897
0.085,0.0186,-2.8945,0.1963,2.8011,5.4622,-3.1513,35.3,100052.0,,,,,,,
0.09,,,,,,,,,6.732,9.999,0.004,0.095,-0.01,0.65,42.001
0.095,0.02,-2.9165,0.0229,1.9608,-4.0616,-3.9216,35.3,100089.0,,,,,,,
0.1,,,,,,,,,7.154,9.999,0.006,0.1,-0.011,1.74,42.161
0.105,-0.0532,-2.9312,0.0713,1.8908,-8.6835,-4.6919,35.3,100179.0,,,,,,,
0.11,,,,,,,,,7.577,9.999,0.007,0.097,-0.013,1.83,42.303
0.115,-0.0273,-2.9849,0.1343,1.8908,-17.7871,-5.3922,35.3,100170.0,,,,,,,
0.12,,,,,,,,,8.007,9.999,0.008,0.091,-0.015,1.83,42.925
0.125,-0.1851,-3.0757,0.021,2.0308,-24.6499,-4.972,35.3,100139.0,,,,,,,
0.13,,,,,,,,,8.455,9.999,0.009,0.076,-0.018,0.65,44.743
0.135,-0.1006,-3.1885,0.0732,0.5602,-20.8683,-4.8319,35.3,100154.0,,,,,,,
0.14,,,,,,,,,8.915,9.999,0.01,0.055,-0.021,0.65,46.053
0.145,-0.043,-3.2529,0.1147,0.5602,-14.2157,-4.3417,35.2,100112.0,,,,,,,
0.15,,,,,,,,,9.38,9.999,0.01,0.037,-0.024,-0.7,46.477
0.155,0.0117,-3.3501,0.126,1.3305,-11.9748,-3.4314,35.2,100089.0,,,,,,,
0.16,,,,,,,,,9.848,9.999,0.01,0.026,-0.026,-0.7,46.76
0.165,0.0435,-3.4351,0.1084,2.591,-13.5154,-3.1513,35.3,100105.0,,,,,,,
0.17,,,,,,,,,10.326,9.999,0.01,0.016,-0.028,-0.7,47.797
0.175,-0.0737,-3.5239,0.083,2.8011,-16.5966,-3.6415,35.3,100133.0,,,,,,,
0.18,,,,,,,,,10.822,9.999,0.012,0.005,-0.029,0.48,49.549
0.185,-0.0625,-3.54,0.0649,2.8711,-14.6359,-4.1317,35.3,100091.0,,,,,,,
0.19,,,,,,,,,11.34,9.999,0.013,-0.008,-0.031,-1.28,51.726
0.195,0.0483,-3.5811,0.2188,2.7311,-19.1176,-3.5014,35.3,100092.0,,,,,,,
0.2,,,,,,,,,11.869,9.999,0.015,-0.02,-0.033,-1.28,52.97
0.205,-0.124,-3.6191,0.0151,-0.1401,-26.7507,-1.1905,35.3,100130.0,,,,,,,
0.21,,,,,,,,,12.418,9.999,0.017,-0.036,-0.034,0.48,54.846
0.215,-0.1211,-3.6729,0.0796,-0.6303,-26.4706,0.07,35.2,100078.0,,,,,,,
0.22,,,,,,,,,12.983,9.999,0.016,-0.059,-0.034,0.48,56.485
0.225,-0.0713,-3.7197,0.104,0.07,-20.5182,0.2801,35.3,100056.0,,,,,,,
0.23,,,,,,,,,13.565,9.999,0.014,-0.081,-0.032,1.07,58.2
0.235,0.019,-3.7988,0.1304,0.4202,-20.5182,-0.4202,35.3,100108.0,,,,,,,
0.24,,,,,,,,,14.151,9.999,0.014,-0.098,-0.03,2.16,58.511
0.245,0.0332,-3.7915,-0.0044,1.9608,-31.2325,-0.4202,35.3,100085.0,,,,,,,
0.25,,,,,,,,,14.744,9.999,0.013,-0.116,-0.029,2.16,59.303
0.255,-0.0605,-3.8862,0.1436,3.6415,-37.7451,-0.9104,35.3,100120.0,,,,,,,
0.26,,,,,,,,,15.345,9.998,0.014,-0.142,-0.028,2.16,60.038
0.265,0.0474,-3.96,0.1421,3.2913,-39.5658,-0.2801,35.3,100093.0,,,,,,,
0.27,,,,,,,,,15.956,9.998,0.017,-0.175,-0.027,2.16,61.075
0.275,-0.1689,-3.9512,0.0552,2.3109,-32.9132,0.2101,35.3,100116.0,,,,,,,
0.28,,,,,,,,,16.576,9.997,0.019,-0.208,-0.026,2.16,61.979
0.285,0.1187,-4.0322,0.1118,2.1008,-39.986,0.0,35.3,100078.0,,,,,,,
0.29,,,,,,,,,17.209,9.997,0.02,-0.236,-0.024,2.08,63.364
0.295,-0.1206,-4.0454,-0.0068,2.7311,-46.8487,-0.5602,35.3,100069.0,,,,,,,
0.3,,,,,,,,,17.845,9.996,0.021,-0.271,-0.023,2.08,63.506
0.305,-0.1465,-4.083,0.1333,4.6218,-53.5014,-2.9412,35.3,100076.0,,,,,,,
0.31,,,,,,,,,18.497,9.995,0.023,-0.311,-0.022,2.75,65.193
0.315,-0.0605,-4.145,0.1084,6.0224,-48.6695,-3.7115,35.3,100078.0,,,,,,,
0.32,,,,,,,,,19.161,9.993,0.026,-0.357,-0.023,2.75,66.446
0.325,-0.062,-4.2124,0.1201,5.6022,-33.7535,-3.6415,35.3,100081.0,,,,,,,
0.33,,,,,,,,,19.828,9.991,0.03,-0.399,-0.025,2.75,66.616
0.335,-0.019,-4.1772,0.0591,5.5322,-29.5518,-3.1513,35.3,100054.0,,,,,,,
0.34,,,,,,,,,20.508,9.99,0.035,-0.427,-0.026,3.09,68.01
0.345,-0.1099,-4.1885,0.1611,4.8319,-36.0644,-1.8207,35.3,100063.0,,,,,,,
0.35,,,,,,,,,21.191,9.989,0.039,-0.452,-0.027,3.34,68.265
0.355,-0.0449,-4.2534,0.1055,3.0112,-34.1737,-0.7703,35.3,100086.0,,,,,,,
0.36,,,,,,,,,21.881,9.988,0.042,-0.483,-0.027,3.34,68.99
0.365,-0.1187,-4.3037,0.0718,1.2605,-37.605,-0.4202,35.3,100056.0,,,,,,,
0.37,,,,,,,,,22.583,9.986,0.044,-0.512,-0.026,3.34,70.187
0.375,-0.0605,-4.3408,0.1191,1.2605,-45.098,-1.1204,35.3,100081.0,,,,,,,
0.38,,,,,,,,,23.291,9.985,0.044,-0.544,-0.025,3.51,70.809
0.385,-0.0576,-4.3203,0.083,0.0,-40.1961,-2.1709,35.3,100054.0,,,,,,,
0.39,,,,,,,,,24.002,9.982,0.045,-0.583,-0.025,3.51,71.026
0.395,-0.0928,-4.3848,0.2427,-0.1401,-34.5238,-2.591,35.2,100045.0,,,,,,,
0.4,,,,,,,,,24.717,9.98,0.044,-0.617,-0.025,3.51,71.488
0.405,-0.064,-4.4028,0.1333,-0.9104,-31.9328,-2.2409,35.3,100046.0,,,,,,,
0.41,,,,,,,,,25.44,9.978,0.043,-0.647,-0.026,4.6,72.279
0.415,-0.0708,-4.4238,0.1357,-1.6106,-27.521,-1.7507,35.2,100049.0,,,,,,,
0.42,,,,,,,,,26.173,9.977,0.041,-0.674,-0.027,5.19,73.25
0.425,0.1216,-4.3872,0.249,-2.591,-19.7479,-0.9104,35.3,100057.0,,,,,,,
0.43,,,,,,,,,26.908,9.975,0.039,-0.697,-0.027,5.36,73.57
0.435,-0.1538,-4.4302,0.0576,-3.1513,-7.563,0.8403,35.3,100077.0,,,,,,,
0.44,,,,,,,,,27.648,9.974,0.036,-0.714,-0.027,5.19,73.966
0.445,-0.0386,-4.5034,0.2944,-3.9216,7.8431,2.0308,35.3,100028.0,,,,,,,
0.45,,,,,,,,,28.397,9.973,0.033,-0.719,-0.025,5.19,74.814
0.455,-0.0029,-4.5283,0.0771,-4.6919,13.0952,2.8011,35.3,100042.0,,,,,,,
0.46,,,,,,,,,29.145,9.974,0.028,-0.712,-0.022,5.36,74.861
0.465,-0.1401,-4.5718,0.1519,-3.2213,8.7535,1.6807,35.3,100040.0,,,,,,,
0.47,,,,,,,,,29.897,9.975,0.023,-0.7,-0.018,5.78,75.163
0.475,-0.147,-4.5654,0.0562,-1.2605,15.4762,-1.7507,35.2,100030.0,,,,,,,
0.48,,,,,,,,,30.653,9.975,0.02,-0.692,-0.015,6.03,75.568
0.485,0.207,-4.6138,0.3135,-0.3501,28.1513,-2.8711,35.3,100015.0,,,,,,,
0.49,,,,,,,,,31.41,9.976,0.018,-0.677,-0.015,6.11,75.691
0.495,-0.0308,-4.6602,0.1826,0.0,33.2633,-2.7311,35.3,100022.0,,,,,,,
0.5,,,,,,,,,32.181,9.978,0.017,-0.652,-0.016,6.37,77.104
0.505,0.1279,-4.6689,0.1289,-0.2101,20.8683,-3.3613,35.3,100020.0,,,,,,,
0.51,,,,,,,,,32.957,9.98,0.016,-0.623,-0.017,6.53,77.585
0.515,0.1797,-4.6587,0.1294,0.8403,9.2437,-3.3613,35.3,100012.0,,,,,,,
0.52,,,,,,,,,33.74,9.981,0.016,-0.604,-0.018,7.37,78.301
0.525,-0.0801,-4.665,0.1392,1.4706,-3.0812,-2.8711,35.2,100017.0,,,,,,,
0.53,,,,,,,,,34.524,9.982,0.016,-0.595,-0.02,7.54,78.423
0.535,-0.0229,-4.6968,0.2065,1.4706,-5.5322,-2.521,35.3,100004.0,,,,,,,
0.54,,,,,,,,,35.317,9.982,0.017,-0.597,-0.021,8.05,79.234
0.545,0.0708,-4.6167,0.1201,1.6106,-5.8824,-2.381,35.3,100060.0,,,,,,,
0.55,,,,,,,,,36.118,9.981,0.017,-0.601,-0.021,8.22,80.101
0.555,0.0161,-4.7959,0.1929,2.0308,-9.3838,-2.7311,35.3,100038.0,,,,,,,
0.56,,,,,,,,,36.919,9.981,0.018,-0.606,-0.022,8.22,80.101
0.565,0.0122,-4.7637,0.2178,2.9412,-7.423,-2.8011,35.3,100037.0,,,,,,,
0.57,,,,,,,,,37.72,9.981,0.019,-0.613,-0.023,8.22,80.129
0.575,0.0605,-4.7744,0.1689,3.5014,-9.8039,-2.9412,35.3,100028.0,,,,,,,
0.58,,,,,,,,,38.522,9.98,0.021,-0.619,-0.023,8.22,80.223
0.585,0.001,-4.9849,0.1943,3.9916,-10.2941,-3.0812,35.3,100029.0,,,,,,,
0.59,,,,,,,,,39.325,9.98,0.023,-0.627,-0.024,8.05,80.299
0.595,0.0498,-4.6528,0.1499,4.2717,-11.2745,-3.2913,35.3,100009.0,,,,,,,
0.6,,,,,,,,,40.133,9.979,0.026,-0.635,-0.025,7.54,80.836
0.605,0.0312,-4.8452,0.1802,5.042,-13.3754,-3.4314,35.2,100027.0,,,,,,,
0.61,,,,,,,,,40.941,9.979,0.029,-0.644,-0.026,7.54,80.836
0.615,0.0459,-4.7417,0.1826,5.2521,-14.2857,-3.7115,35.2,100028.0,,,,,,,
0.62,,,,,,,,,41.762,9.978,0.033,-0.655,-0.028,7.54,82.127
0.625,0.0166,-4.8335,0.1592,5.6723,-15.8964,-3.9216,35.3,100034.0,,,,,,,
0.63,,,,,,,,,42.582,9.977,0.037,-0.667,-0.029,7.54,82.127
0.635,0.0278,-4.9536,0.1865,6.0924,-17.2969,-4.0616,35.3,100011.0,,,,,,,
0.64,,,,,,,,,43.405,9.976,0.041,-0.68,-0.031,7.46,82.334
0.645,0.0254,-4.9028,0.2002,6.8627,-20.6583,-4.2717,35.3,100027.0,,,,,,,
0.65,,,,,,,,,44.232,9.975,0.046,-0.695,-0.033,7.54,82.749
0.655,0.0151,-4.9092,0.1777,7.2829,-21.4286,-4.4118,35.2,100014.0,,,,,,,
0.66,,,,,,,,,45.065,9.974,0.051,-0.712,-0.034,7.54,83.475
0.665,0.0117,-4.8818,0.1729,7.8431,-22.619,-4.4118,35.2,100031.0,,,,,,,
0.67,,,,,,,,,45.901,9.973,0.057,-0.73,-0.036,7.63,83.701
0.675,0.0493,-4.8735,0.1689,8.2633,-22.9692,-4.6218,35.2,99979.0,,,,,,,
0.68,,,,,,,,,46.744,9.971,0.063,-0.749,-0.038,7.63,84.407
0.685,0.0054,-4.8467,0.1875,8.7535,-25.4202,-4.7619,35.2,100001.0,,,,,,,
0.69,,,,,,,,,47.585,9.97,0.07,-0.768,-0.041,7.63,84.247
0.695,0.0171,-4.8608,0.1855,9.1036,-26.5406,-4.972,35.2,100012.0,,,,,,,
0.7,,,,,,,,,48.426,9.968,0.077,-0.79,-0.043,7.63,84.247
0.705,0.0488,-4.8789,0.1646,9.4538,-28.0112,-5.112,35.2,100000.0,,,,,,,
0.71,,,,,,,,,49.268,9.966,0.085,-0.812,-0.045,8.72,84.247
0.715,-0.0112,-4.8877,0.1689,9.8739,-29.4118,-5.3221,35.2,100009.0,,,,,,,
0.72,,,,,,,,,50.11,9.964,0.092,-0.836,-0.048,8.89,84.351
0.725,0.1299,-4.8926,0.1787,10.2941,-30.8824,-5.9524,35.2,99994.0,,,,,,,
0.73,,,,,,,,,50.952,9.962,0.1,-0.861,-0.05,8.97,84.407
0.735,-0.0195,-4.9028,0.2197,10.9944,-30.6723,-6.0924,35.2,100012.0,,,,,,,
0.74,,,,,,,,,51.794,9.959,0.109,-0.887,-0.053,9.14,84.407
0.745,-0.0669,-4.8828,0.064,10.9244,-32.9832,-5.9524,35.2,99998.0,,,,,,,
0.75,,,,,,,,,52.637,9.957,0.118,-0.913,-0.057,9.14,84.407
0.755,0.0786,-4.9028,0.2578,10.9944,-35.014,-5.7423,35.2,99985.0,,,,,,,
0.76,,,,,,,,,53.479,9.954,0.127,-0.941,-0.06,9.82,84.407
0.765,-0.0068,-4.9287,0.1377,11.4146,-36.7647,-5.6022,35.2,99977.0,,,,,,,
0.77,,,,,,,,,54.321,9.951,0.136,-0.971,-0.063,9.9,84.426
0.775,-0.0469,-4.9277,0.1943,11.5546,-38.4454,-5.5322,35.2,99979.0,,,,,,,
0.78,,,,,,,,,55.164,9.948,0.145,-1.002,-0.066,9.9,84.521
0.785,0.0649,-5.0425,0.1572,11.3445,-40.9664,-5.3221,35.2,99963.0,,,,,,,
0.79,,,,,,,,,56.008,9.944,0.155,-1.035,-0.069,10.07,84.615
0.795,0.0078,-4.7944,0.1313,11.6246,-41.9468,-5.2521,35.2,99976.0,,,,,,,
0.8,,,,,,,,,56.853,9.94,0.164,-1.069,-0.071,10.4,84.813
0.805,-0.0176,-4.9272,0.1924,11.8347,-43.9776,-5.3221,35.2,99964.0,,,,,,,
0.81,,,,,,,,,57.699,9.936,0.173,-1.105,-0.074,11.16,84.813
0.815,0.0342,-4.9453,0.1821,12.0448,-45.7283,-5.1821,35.2,99974.0,,,,,,,
0.82,,,,,,,,,58.545,9.932,0.183,-1.143,-0.076,11.67,84.813
0.825,-0.0112,-4.9507,0.126,12.1148,-45.8683,-5.1821,35.2,99974.0,,,,,,,
0.83,,,,,,,,,59.395,9.927,0.193,-1.182,-0.079,11.83,85.284
0.835,-0.0176,-4.9565,0.1855,11.9748,-47.6891,-5.042,35.2,99953.0,,,,,,,
0.84,,,,,,,,,60.245,9.922,0.203,-1.221,-0.082,11.92,85.293
0.845,0.0195,-4.9702,0.1348,12.0448,-47.8992,-4.972,35.2,99960.0,,,,,,,
0.85,,,,,,,,,61.095,9.917,0.212,-1.261,-0.084,12.09,85.312
0.855,-0.0376,-4.9658,0.166,11.9748,-48.3894,-4.902,35.2,99958.0,,,,,,,
0.86,,,,,,,,,61.947,9.911,0.222,-1.302,-0.086,12.09,85.633
0.865,-0.0288,-4.9751,0.1602,12.0448,-48.0392,-4.7619,35.2,99957.0,,,,,,,
0.87,,,,,,,,,62.801,9.906,0.232,-1.343,-0.089,12.93,85.736
0.875,0.0249,-4.9766,0.1479,11.7647,-47.549,-4.6919,35.2,99942.0,,,,,,,
0.88,,,,,,,,,63.656,9.9,0.241,-1.384,-0.091,13.01,85.849
0.885,-0.0488,-4.9736,0.1748,12.1148,-47.9692,-4.4818,35.2,99953.0,,,,,,,
0.89,,,,,,,,,64.511,9.894,0.251,-1.424,-0.093,13.26,85.849
0.895,0.0083,-4.9863,0.1304,11.5546,-47.6891,-4.4118,35.2,99945.0,,,,,,,
0.9,,,,,,,,,65.367,9.888,0.261,-1.465,-0.095,13.43,86.028
0.905,-0.0093,-4.9761,0.1475,11.6947,-47.1289,-4.2017,35.2,99944.0,,,,,,,
0.91,,,,,,,,,66.224,9.881,0.27,-1.506,-0.097,13.52,86.113
0.915,-0.0366,-4.9917,0.1284,11.6246,-47.409,-4.0616,35.2,99913.0,,,,,,,
0.92,,,,,,,,,67.081,9.875,0.279,-1.546,-0.099,13.85,86.179
0.925,-0.0151,-4.9858,0.187,11.4846,-47.7591,-3.7815,35.3,99936.0,,,,,,,
0.93,,,,,,,,,67.938,9.868,0.288,-1.586,-0.101,13.85,86.207
0.935,-0.021,-4.9829,0.1504,11.4146,-48.1092,-3.5714,35.2,99908.0,,,,,,,
0.94,,,,,,,,,68.795,9.861,0.297,-1.626,-0.102,14.53,86.226
0.945,-0.0308,-4.9624,0.1245,11.3445,-48.5294,-3.3613,35.2,99924.0,,,,,,,
0.95,,,,,,,,,69.652,9.854,0.306,-1.667,-0.103,14.61,86.236
0.955,-0.0063,-4.959,0.1304,10.9944,-47.6891,-3.0112,35.3,99909.0,,,,,,,
0.96,,,,,,,,,70.509,9.847,0.315,-1.708,-0.104,14.78,86.236
0.965,-0.0352,-4.9824,0.1421,11.4146,-47.3389,-2.7311,35.2,99921.0,,,,,,,
0.97,,,,,,,,,71.366,9.839,0.324,-1.749,-0.105,15.29,86.236
0.975,-0.0488,-4.9692,0.126,11.3445,-46.3585,-2.381,35.2,99905.0,,,,,,,
0.98,,,,,,,,,72.223,9.832,0.333,-1.789,-0.106,16.29,86.349
0.985,-0.0107,-4.9736,0.127,10.4342,-46.1485,-1.9608,35.2,99909.0,,,,,,,
0.99,,,,,,,,,73.081,9.824,0.341,-1.828,-0.106,16.55,86.349
0.995,-0.0659,-4.9766,0.1436,10.084,-46.0084,-1.5406,35.2,99907.0,,,,,,,
1.0,,,,,,,,,73.937,9.817,0.349,-1.867,-0.106,17.22,86.226
1.005,-0.0234,-4.9805,0.1006,9.5238,-45.7283,-1.0504,35.2,99900.0,,,,,,,
1.01,,,,,,,,,74.793,9.809,0.357,-1.906,-0.106,17.56,86.236
1.015,0.0107,-4.979,0.1289,9.1737,-46.7087,-0.4902,35.2,99894.0,,,,,,,
1.02,,,,,,,,,75.648,9.801,0.364,-1.944,-0.105,17.56,86.236
1.025,-0.0698,-5.0083,0.1074,8.7535,-48.4594,-0.07,35.2,99879.0,,,,,,,
1.03,,,,,,,,,76.503,9.793,0.37,-1.983,-0.104,17.64,86.236
1.035,-0.0029,-5.0098,0.1392,8.4734,-49.2997,0.3501,35.2,99874.0,,,,,,,
1.04,,,,,,,,,77.358,9.785,0.376,-2.024,-0.102,17.73,86.236
1.045,-0.0308,-5.0122,0.1489,8.3333,-49.4398,0.7003,35.2,99859.0,,,,,,,
1.05,,,,,,,,,78.212,9.776,0.382,-2.066,-0.101,17.89,86.283
1.055,-0.0601,-4.9814,0.1191,7.493,-49.0196,1.0504,35.2,99883.0,,,,,,,
1.06,,,,,,,,,79.067,9.767,0.388,-2.107,-0.099,18.32,86.311
1.065,-0.0103,-4.9702,0.124,6.8627,-51.4006,1.5406,35.2,99882.0,,,,,,,
1.07,,,,,,,,,79.922,9.757,0.392,-2.149,-0.097,18.82,86.311
1.075,-0.0195,-4.9819,0.1426,6.5126,-52.1709,1.8908,35.2,99866.0,,,,,,,
1.08,,,,,,,,,80.776,9.748,0.397,-2.192,-0.095,19.75,86.311
1.085,-0.0469,-4.9854,0.1191,6.4426,-53.2213,2.3109,35.2,99865.0,,,,,,,
1.09,,,,,,,,,81.63,9.738,0.4,-2.236,-0.092,19.83,86.33
1.095,0.022,-4.9727,0.1353,6.3025,-54.0616,2.6611,35.2,99860.0,,,,,,,
1.1,,,,,,,,,82.484,9.727,0.404,-2.281,-0.09,20.08,86.339
1.105,-0.0303,-4.9658,0.1348,6.3025,-53.7115,2.9412,35.2,99826.0,,,,,,,
1.11,,,,,,,,,83.337,9.716,0.407,-2.326,-0.087,20.5,86.339
1.115,-0.0283,-4.9561,0.1143,5.9524,-54.2717,3.0112,35.2,99828.0,,,,,,,
1.12,,,,,,,,,84.19,9.705,0.411,-2.371,-0.083,21.18,86.339
1.125,0.0015,-4.9629,0.1064,5.4622,-53.9916,3.1513,35.2,99824.0,,,,,,,
1.13,,,,,,,,,85.042,9.694,0.414,-2.416,-0.08,21.26,86.33
1.135,-0.0498,-5.0093,0.144,5.6022,-54.7619,3.3613,35.2,99817.0,,,,,,,
1.14,,,,,,,,,85.893,9.682,0.416,-2.462,-0.077,21.68,86.16
1.145,-0.0283,-5.0708,0.1294,5.2521,-57.423,3.7815,35.2,99810.0,,,,,,,
1.15,,,,,,,,,86.742,9.671,0.419,-2.507,-0.074,21.68,86.16
1.155,-0.021,-4.793,0.1021,4.5518,-59.8739,4.2017,35.2,99830.0,,,,,,,
1.16,,,,,,,,,87.593,9.658,0.421,-2.555,-0.07,24.38,86.16
1.165,-0.0386,-4.981,0.1616,4.1317,-61.2045,4.4818,35.2,99835.0,,,,,,,
1.17,,,,,,,,,88.443,9.644,0.422,-2.605,-0.066,24.38,86.16
1.175,-0.0137,-4.9971,0.0918,3.2913,-63.1653,4.8319,35.2,99812.0,,,,,,,
1.18,,,,,,,,,89.292,9.631,0.423,-2.657,-0.063,24.38,86.16
1.185,-0.002,-5.0093,0.145,3.8515,-65.4762,5.112,35.2,99812.0,,,,,,,
1.19,,,,,,,,,90.141,9.616,0.424,-2.709,-0.059,24.55,86.16
1.195,-0.0703,-4.9741,0.147,3.5014,-66.0364,5.3922,35.2,99801.0,,,,,,,
1.2,,,,,,,,,90.99,9.6,0.424,-2.764,-0.055,24.72,86.32
1.205,0.0195,-4.9702,0.1255,2.6611,-67.8571,5.7423,35.2,99810.0,,,,,,,
1.21,,,,,,,,,91.839,9.584,0.424,-2.819,-0.05,25.3,86.32
1.215,-0.0273,-4.9653,0.1489,2.7311,-69.8179,6.1625,35.3,99801.0,,,,,,,
1.22,,,,,,,,,92.688,9.568,0.424,-2.875,-0.046,25.73,86.32
1.225,-0.0391,-4.9395,0.125,2.7311,-71.7787,6.5126,35.2,99785.0,,,,,,,
1.23,,,,,,,,,93.536,9.55,0.423,-2.933,-0.042,25.73,86.32
1.235,0.0371,-4.917,0.1377,2.521,-71.4986,6.7227,35.2,99763.0,,,,,,,
1.24,,,,,,,,,94.382,9.532,0.422,-2.992,-0.037,25.89,86.189
1.245,-0.0713,-4.9287,0.123,1.8908,-71.9888,6.8627,35.2,99770.0,,,,,,,
1.25,,,,,,,,,95.227,9.513,0.421,-3.051,-0.032,25.89,86.113
1.255,-0.0068,-4.9268,0.146,1.7507,-72.549,7.0028,35.2,99767.0,,,,,,,
1.26,,,,,,,,,96.071,9.494,0.42,-3.111,-0.027,26.66,86.113
1.265,0.0205,-4.918,0.1577,2.521,-73.9496,7.2129,35.2,99767.0,,,,,,,
1.27,,,,,,,,,96.913,9.474,0.418,-3.17,-0.022,26.66,86.019
1.275,-0.0576,-4.9165,0.1416,1.9608,-75.7003,7.3529,35.2,99769.0,,,,,,,
1.28,,,,,,,,,97.75,9.454,0.417,-3.231,-0.017,28.0,85.519
1.285,0.0117,-4.9321,0.1646,2.3109,-75.7003,7.493,35.2,99764.0,,,,,,,
1.29,,,,,,,,,98.586,9.432,0.415,-3.293,-0.012,29.27,85.312
1.295,0.0034,-4.9219,0.1392,1.9608,-76.1204,7.563,35.2,99757.0,,,,,,,
1.3,,,,,,,,,99.42,9.411,0.414,-3.355,-0.006,29.35,85.312
1.305,-0.042,-4.9004,0.167,2.521,-75.8403,7.6331,35.2,99739.0,,,,,,,
1.31,,,,,,,,,100.253,9.388,0.412,-3.417,-0.001,29.52,85.274
1.315,0.0356,-4.9023,0.1401,2.451,-75.07,7.493,35.2,99726.0,,,,,,,
1.32,,,,,,,,,101.084,9.366,0.41,-3.479,0.003,29.52,85.18
1.325,-0.0107,-4.8911,0.1816,2.2409,-73.7395,7.3529,35.3,99737.0,,,,,,,
1.33,,,,,,,,,101.914,9.343,0.409,-3.54,0.009,29.77,85.105
1.335,0.0039,-4.8804,0.1616,1.6106,-74.0896,7.3529,35.2,99740.0,,,,,,,
1.34,,,,,,,,,102.743,9.32,0.407,-3.6,0.014,29.77,85.105
1.345,-0.0142,-4.8652,0.1719,1.8908,-72.8291,7.2129,35.2,99715.0,,,,,,,
1.35,,,,,,,,,103.571,9.297,0.405,-3.659,0.019,30.36,85.077
1.355,0.0083,-4.8584,0.1538,2.451,-72.1989,7.0728,35.2,99717.0,,,,,,,
1.36,,,,,,,,,104.396,9.274,0.403,-3.718,0.024,31.79,84.803
1.365,0.0,-4.854,0.1587,2.7311,-71.2185,6.8627,35.2,99731.0,,,,,,,
1.37,,,,,,,,,105.22,9.25,0.402,-3.776,0.029,31.88,84.766
1.375,0.0225,-4.8457,0.1499,3.8515,-69.7479,6.5126,35.2,99712.0,,,,,,,
1.38,,,,,,,,,106.041,9.227,0.401,-3.833,0.035,32.05,84.587
1.385,-0.0063,-4.853,0.1797,4.5518,-69.0476,6.3025,35.2,99685.0,,,,,,,
1.39,,,,,,,,,106.859,9.203,0.401,-3.889,0.04,32.56,84.379
1.395,-0.0146,-4.8491,0.1323,4.4118,-67.2269,5.9524,35.2,99676.0,,,,,,,
1.4,,,,,,,,,107.673,9.18,0.401,-3.944,0.045,32.98,84.087
1.405,0.0781,-4.8359,0.1304,3.2913,-66.5266,5.5322,35.2,99664.0,,,,,,,
1.41,,,,,,,,,108.486,9.157,0.402,-3.997,0.05,33.73,83.955
1.415,-0.02,-4.8325,0.1577,4.6919,-65.4062,5.1821,35.2,99692.0,,,,,,,
1.42,,,,,,,,,109.297,9.133,0.402,-4.05,0.055,33.9,83.87
1.425,-0.0015,-4.8188,0.1606,4.5518,-64.1457,4.972,35.2,99651.0,,,,,,,
1.43,,,,,,,,,110.106,9.11,0.403,-4.102,0.059,34.16,83.851
1.435,0.061,-4.8193,0.1602,4.4118,-64.0756,4.7619,35.2,99656.0,,,,,,,
1.44,,,,,,,,,110.915,9.087,0.404,-4.152,0.064,35.84,83.776
1.445,-0.0288,-4.8276,0.1465,4.0616,-63.5154,4.4818,35.2,99658.0,,,,,,,
1.45,,,,,,,,,111.723,9.064,0.404,-4.203,0.068,36.43,83.71
1.455,0.0693,-4.8472,0.1846,3.9216,-64.1457,4.1317,35.2,99651.0,,,,,,,
1.46,,,,,,,,,112.527,9.041,0.405,-4.252,0.072,37.19,83.522
1.465,0.0244,-4.8516,0.1548,5.6022,-64.4258,4.0616,35.2,99648.0,,,,,,,
1.47,,,,,,,,,113.332,9.017,0.406,-4.302,0.076,38.2,83.522
1.475,0.0464,-4.8755,0.1724,5.7423,-64.7059,3.5014,35.2,99627.0,,,,,,,
1.48,,,,,,,,,114.135,8.993,0.408,-4.353,0.08,38.71,83.522
1.485,0.0347,-4.8389,0.1953,5.112,-64.4258,3.1513,35.2,99602.0,,,,,,,
1.49,,,,,,,,,114.938,8.968,0.41,-4.403,0.083,38.88,83.522
1.495,0.0527,-4.8174,0.1182,5.112,-63.4454,2.521,35.2,99592.0,,,,,,,
1.5,,,,,,,,,115.739,8.943,0.412,-4.453,0.087,39.3,83.522
1.505,0.0498,-4.8174,0.0928,5.3922,-63.0952,1.8207,35.2,99591.0,,,,,,,
1.51,,,,,,,,,116.539,8.919,0.414,-4.502,0.089,39.3,83.456
1.515,0.0654,-4.8145,0.2036,5.5322,-62.3249,1.0504,35.2,99601.0,,,,,,,
1.52,,,,,,,,,117.336,8.894,0.417,-4.55,0.092,39.55,83.361
1.525,0.02,-4.8032,0.1123,5.112,-63.9356,0.3501,35.2,99567.0,,,,,,,
1.53,,,,,,,,,118.133,8.869,0.42,-4.598,0.094,41.33,83.361
1.535,0.0742,-4.7852,0.1421,4.972,-64.0056,-0.2101,35.2,99582.0,,,,,,,
1.54,,,,,,,,,118.931,8.843,0.423,-4.647,0.095,43.44,83.361
1.545,0.0259,-4.7852,0.1519,3.7815,-63.9356,-0.6303,35.2,99575.0,,,,,,,
1.55,,,,,,,,,119.725,8.817,0.426,-4.696,0.095,43.52,83.164
1.555,-0.0073,-4.7744,0.104,4.1317,-62.7451,-1.1204,35.2,99539.0,,,,,,,
1.56,,,,,,,,,120.519,8.791,0.428,-4.744,0.095,44.28,83.164
1.565,0.0771,-4.7739,0.1777,4.4818,-61.7647,-1.7507,35.2,99538.0,,,,,,,
1.57,,,,,,,,,121.31,8.765,0.431,-4.792,0.095,44.36,83.107
1.575,0.022,-4.7554,0.1064,4.5518,-60.2941,-2.3109,35.2,99553.0,,,,,,,
1.58,,,,,,,,,122.099,8.74,0.435,-4.838,0.094,45.12,82.89
1.585,-0.0234,-4.7539,0.1577,4.902,-59.8739,-2.7311,35.2,99533.0,,,,,,,
1.59,,,,,,,,,122.883,8.714,0.438,-4.883,0.093,45.71,82.542
1.595,0.0869,-4.7451,0.1426,4.3417,-57.6331,-3.2213,35.2,99537.0,,,,,,,
1.6,,,,,,,,,123.666,8.689,0.442,-4.928,0.092,46.39,82.542
1.605,-0.0234,-4.7539,0.0801,4.2717,-58.7535,-3.4314,35.2,99536.0,,,,,,,
1.61,,,,,,,,,124.446,8.664,0.446,-4.971,0.09,47.57,82.334
1.615,-0.0176,-4.7661,0.1558,2.8711,-57.563,-3.6415,35.2,99522.0,,,,,,,
1.62,,,,,,,,,125.226,8.639,0.45,-5.015,0.088,48.76,82.325
1.625,0.0986,-4.7446,0.1128,3.9216,-58.1232,-3.7815,35.2,99536.0,,,,,,,
1.63,,,,,,,,,126.003,8.614,0.453,-5.057,0.085,48.84,82.174
1.635,-0.063,-4.7397,0.1226,2.8711,-56.8627,-3.9216,35.2,99481.0,,,,,,,
1.64,,,,,,,,,126.776,8.588,0.456,-5.1,0.083,48.92,81.967
1.645,0.0171,-4.7197,0.1748,2.2409,-57.563,-3.9916,35.2,99495.0,,,,,,,
1.65,,,,,,,,,127.547,8.563,0.459,-5.142,0.08,49.01,81.938
1.655,0.0791,-4.6968,0.1157,1.0504,-56.0224,-4.3417,35.2,99481.0,,,,,,,
1.66,,,,,,,,,128.316,8.537,0.462,-5.184,0.076,49.01,81.938
1.665,0.0498,-4.7144,0.1606,2.8711,-56.7227,-4.5518,35.2,99470.0,,,,,,,
1.67,,,,,,,,,129.082,8.512,0.463,-5.225,0.072,49.26,81.769
1.675,0.0239,-4.7163,0.147,2.6611,-57.0728,-4.6919,35.2,99488.0,,,,,,,
1.68,,,,,,,,,129.847,8.487,0.467,-5.267,0.069,50.19,81.759
1.685,-0.0615,-4.7124,0.1436,1.7507,-54.7619,-4.902,35.2,99474.0,,,,,,,
1.69,,,,,,,,,130.612,8.461,0.47,-5.308,0.065,52.47,81.665
1.695,0.0684,-4.6987,0.0757,0.9104,-53.6415,-5.042,35.2,99462.0,,,,,,,
1.7,,,,,,,,,131.371,8.436,0.472,-5.348,0.061,53.06,81.279
1.705,0.0078,-4.6826,0.123,1.6807,-53.4314,-5.042,35.2,99431.0,,,,,,,
1.71,,,,,,,,,132.129,8.411,0.474,-5.387,0.057,53.65,81.213
1.715,-0.0498,-4.6694,0.147,2.3109,-53.0112,-5.112,35.2,99454.0,,,,,,,
1.72,,,,,,,,,132.884,8.386,0.476,-5.425,0.053,53.65,81.175
1.725,0.0342,-4.6567,0.1113,-0.4202,-51.8207,-5.3922,35.2,99424.0,,,,,,,
1.73,,,,,,,,,133.637,8.361,0.479,-5.463,0.049,54.24,81.137
1.735,-0.0586,-4.644,0.186,0.0,-51.3305,-5.3221,35.2,99460.0,,,,,,,
1.74,,,,,,,,,134.386,8.337,0.48,-5.5,0.043,54.58,80.874
1.745,-0.0293,-4.6519,0.1089,2.1008,-52.591,-5.1821,35.2,99456.0,,,,,,,
1.75,,,,,,,,,135.134,8.312,0.482,-5.537,0.038,55.26,80.836
1.755,0.0117,-4.626,0.1309,-1.0504,-51.5406,-4.972,35.2,99433.0,,,,,,,
1.76,,,,,,,,,135.877,8.287,0.485,-5.574,0.034,55.43,80.563
1.765,-0.0645,-4.6201,0.1245,-0.7003,-49.8599,-4.7619,35.2,99432.0,,,,,,,
1.77,,,,,,,,,136.615,8.263,0.485,-5.611,0.029,55.77,80.308
1.775,0.0083,-4.6138,0.1724,-1.1905,-47.9692,-4.6919,35.2,99408.0,,,,,,,
1.78,,,,,,,,,137.349,8.239,0.485,-5.646,0.024,55.93,80.063
1.785,-0.0181,-4.5962,0.1226,-0.3501,-47.8992,-4.4118,35.2,99406.0,,,,,,,
1.79,,,,,,,,,138.082,8.215,0.486,-5.68,0.019,57.71,79.969
1.795,-0.0327,-4.5884,0.1621,1.8207,-48.9496,-4.3417,35.2,99397.0,,,,,,,
1.8,,,,,,,,,138.812,8.192,0.486,-5.713,0.015,57.79,79.818
1.805,-0.0605,-4.5811,0.1523,0.9804,-50.1401,-3.8515,35.2,99420.0,,,,,,,
1.81,,,,,,,,,139.536,8.168,0.488,-5.747,0.011,57.79,79.469
1.815,-0.0308,-4.5566,0.1807,0.4202,-49.5798,-3.5014,35.2,99382.0,,,,,,,
1.82,,,,,,,,,140.257,8.143,0.489,-5.782,0.008,58.47,79.356
1.825,-0.0059,-4.5605,0.1167,1.6106,-48.4594,-3.1513,35.2,99416.0,,,,,,,
1.83,,,,,,,,,140.975,8.118,0.49,-5.817,0.004,58.81,79.234
1.835,-0.085,-4.542,0.1392,1.4706,-49.3697,-2.6611,35.2,99384.0,,,,,,,
1.84,,,,,,,,,141.687,8.094,0.491,-5.851,0.002,59.14,78.895
1.845,-0.0098,-4.5498,0.1104,-0.2801,-47.6891,-2.2409,35.2,99359.0,,,,,,,
1.85,,,,,,,,,142.397,8.069,0.492,-5.885,0.0,59.82,78.744
1.855,-0.0552,-4.5269,0.2075,-1.7507,-46.1485,-1.8908,35.2,99359.0,,,,,,,
1.86,,,,,,,,,143.103,8.045,0.492,-5.918,-0.003,59.99,78.603
1.865,-0.0728,-4.5195,0.1558,-1.9608,-44.6078,-1.6106,35.2,99350.0,,,,,,,
1.87,,,,,,,,,143.803,8.022,0.49,-5.95,-0.006,60.75,78.207
1.875,-0.0586,-4.5176,0.1699,0.4902,-44.7479,-1.0504,35.2,99361.0,,,,,,,
1.88,,,,,,,,,144.502,7.999,0.488,-5.98,-0.009,61.85,78.131
1.885,-0.0249,-4.4897,0.1787,1.0504,-44.6078,-0.7703,35.2,99371.0,,,,,,,
1.89,,,,,,,,,145.197,7.976,0.487,-6.011,-0.011,62.02,77.999
1.895,-0.0957,-4.5166,0.1611,1.4706,-45.1681,-0.1401,35.2,99365.0,,,,,,,
1.9,,,,,,,,,145.889,7.953,0.487,-6.041,-0.012,62.95,77.849
1.905,-0.0566,-4.5342,0.2075,3.6415,-46.0084,0.2801,35.2,99331.0,,,,,,,
1.91,,,,,,,,,146.576,7.929,0.487,-6.072,-0.012,63.46,77.556
1.915,-0.0366,-4.561,0.106,1.8908,-44.1877,0.7703,35.2,99358.0,,,,,,,
1.92,,,,,,,,,147.261,7.905,0.487,-6.104,-0.011,63.8,77.556
1.925,-0.1064,-4.5376,0.2085,2.591,-44.5378,1.2605,35.2,99332.0,,,,,,,
1.93,,,,,,,,,147.944,7.882,0.487,-6.134,-0.011,63.96,77.556
1.935,-0.0723,-4.481,0.1978,4.2017,-46.0784,1.6807,35.2,99351.0,,,,,,,
1.94,,,,,,,,,148.623,7.858,0.486,-6.164,-0.009,63.96,77.556
1.945,0.0044,-4.4722,0.0649,3.3613,-42.577,2.1008,35.2,99314.0,,,,,,,
1.95,,,,,,,,,149.299,7.834,0.487,-6.195,-0.007,64.05,77.415
1.955,-0.0913,-4.4575,0.1943,2.1709,-44.6078,2.381,35.2,99284.0,,,,,,,
1.96,,,,,,,,,149.973,7.811,0.486,-6.224,-0.005,64.64,77.377
1.965,-0.0195,-4.4082,0.1548,3.8515,-46.1485,2.591,35.2,99290.0,,,,,,,
1.97,,,,,,,,,150.643,7.787,0.485,-6.254,-0.003,64.64,77.359
1.975,-0.0068,-4.4253,0.1494,4.0616,-44.888,2.7311,35.2,99278.0,,,,,,,
1.98,,,,,,,,,151.308,7.762,0.485,-6.285,0.0,66.25,76.84
1.985,-0.0703,-4.4062,0.1479,4.6919,-44.958,2.591,35.2,99296.0,,,,,,,
1.99,,,,,,,,,151.968,7.738,0.485,-6.315,0.002,66.33,76.671
1.995,0.0454,-4.4121,0.1929,3.4314,-43.2773,2.381,35.2,99295.0,,,,,,,
2.0,,,,,,,,,152.626,7.713,0.485,-6.345,0.005,67.77,76.501
2.005,-0.0093,-4.3916,0.1724,3.2913,-44.2577,2.381,35.2,99263.0,,,,,,,
2.01,,,,,,,,,153.28,7.69,0.484,-6.373,0.007,69.29,76.218
2.015,0.0186,-4.3574,0.1509,3.2913,-42.9972,1.7507,35.2,99271.0,,,,,,,
2.02,,,,,,,,,153.925,7.665,0.484,-6.403,0.01,69.38,75.596
2.025,-0.0444,-4.3491,0.1699,3.0112,-42.1569,1.5406,35.2,99247.0,,,,,,,
2.03,,,,,,,,,154.565,7.642,0.483,-6.431,0.012,69.8,75.342
2.035,0.0308,-4.335,0.1987,4.5518,-41.5266,1.1204,35.2,99256.0,,,,,,,
2.04,,,,,,,,,155.202,7.618,0.483,-6.459,0.013,70.31,75.267
2.045,0.0088,-4.3354,0.1577,6.3025,-40.6863,0.9104,35.2,99236.0,,,,,,,
2.05,,,,,,,,,155.837,7.595,0.484,-6.486,0.016,70.82,75.229
2.055,-0.0073,-4.3276,0.1841,4.5518,-41.9468,0.4902,35.2,99213.0,,,,,,,
2.06,,,,,,,,,156.466,7.572,0.486,-6.512,0.019,71.41,74.946
2.065,0.0591,-4.2896,0.1938,5.6022,-41.3165,0.07,35.2,99201.0,,,,,,,
2.07,,,,,,,,,157.087,7.549,0.488,-6.54,0.021,72.09,74.286
2.075,0.0195,-4.2988,0.1113,7.0728,-40.1961,-0.4202,35.2,99195.0,,,,,,,
2.08,,,,,,,,,157.703,7.525,0.49,-6.566,0.023,72.68,74.126
2.085,-0.0127,-4.2852,0.1914,7.2829,-43.2073,-0.7703,35.2,99192.0,,,,,,,
2.09,,,,,,,,,158.316,7.502,0.493,-6.592,0.026,73.44,73.862
2.095,0.0732,-4.2788,0.124,9.3137,-42.2269,-1.0504,35.2,99190.0,,,,,,,
2.1,,,,,,,,,158.926,7.478,0.497,-6.62,0.028,74.37,73.853
2.105,0.0112,-4.252,0.1362,4.6218,-44.3277,-1.5406,35.2,99186.0,,,,,,,
2.11,,,,,,,,,159.534,7.453,0.502,-6.647,0.032,76.32,73.712
2.115,-0.0049,-4.2275,0.1802,8.0532,-43.2773,-2.0308,35.2,99112.0,,,,,,,
2.12,,,,,,,,,160.135,7.428,0.505,-6.675,0.032,77.33,73.156
2.125,0.0732,-4.2329,0.0825,6.8627,-42.2969,-2.7311,35.2,99161.0,,,,,,,
2.13,,,,,,,,,160.732,7.403,0.51,-6.703,0.035,77.84,72.977
2.135,0.0396,-4.23,0.1572,7.9132,-40.8964,-3.5714,35.1,99133.0,,,,,,,
2.14,,,,,,,,,161.325,7.378,0.514,-6.729,0.036,78.1,72.892
2.145,0.0278,-4.2256,0.1436,8.8235,-44.1877,-4.4118,35.2,99147.0,,,,,,,
2.15,,,,,,,,,161.914,7.354,0.52,-6.755,0.037,78.27,72.769
2.155,0.0732,-4.1958,0.0918,5.3221,-43.9076,-5.042,35.2,99117.0,,,,,,,
2.16,,,,,,,,,162.495,7.328,0.527,-6.783,0.038,78.61,72.251
2.165,0.0308,-4.1899,0.1631,7.3529,-45.3782,-5.8123,35.2,99097.0,,,,,,,
2.17,,,,,,,,,163.072,7.302,0.532,-6.81,0.036,80.72,71.883
2.175,0.0767,-4.1689,0.0352,4.8319,-43.4874,-6.5126,35.2,99094.0,,,,,,,
2.18,,,,,,,,,163.647,7.275,0.539,-6.838,0.036,81.91,71.827
2.185,0.0176,-4.1797,0.1084,3.0812,-45.098,-7.1429,35.2,99092.0,,,,,,,
2.19,,,,,,,,,164.22,7.25,0.544,-6.865,0.033,83.09,71.78
2.195,-0.0078,-4.1602,0.0923,4.4118,-47.8992,-7.6331,35.1,99071.0,,,,,,,
2.2,,,,,,,,,164.791,7.223,0.549,-6.893,0.029,84.45,71.742
2.205,0.0342,-4.168,0.1465,3.2213,-46.6387,-8.0532,35.2,99058.0,,,,,,,
2.21,,,,,,,,,165.354,7.194,0.555,-6.922,0.025,84.88,71.167
2.215,-0.0288,-4.144,0.0503,3.4314,-48.6695,-8.3333,35.1,99071.0,,,,,,,
2.22,,,,,,,,,165.914,7.167,0.56,-6.951,0.021,86.15,71.054
2.225,-0.0415,-4.1108,0.1396,3.7115,-51.1204,-8.0532,35.2,99051.0,,,,,,,
2.23,,,,,,,,,166.469,7.137,0.566,-6.98,0.016,86.4,70.856
2.235,0.0034,-4.124,0.0903,2.591,-50.0,-7.9132,35.2,99029.0,,,,,,,
2.24,,,,,,,,,167.019,7.106,0.572,-7.011,0.011,86.57,70.649
2.245,-0.0825,-4.1138,0.1099,3.0812,-50.1401,-7.7731,35.1,99075.0,,,,,,,
2.25,,,,,,,,,167.568,7.076,0.577,-7.041,0.006,88.35,70.63
2.255,0.0005,-4.0889,0.1162,-0.4902,-49.1597,-7.493,35.1,99043.0,,,,,,,
2.26,,,,,,,,,168.112,7.046,0.582,-7.071,0.001,88.35,70.479
2.265,-0.0752,-4.0811,0.0933,-3.4314,-52.381,-7.1429,35.2,99046.0,,,,,,,
2.27,,,,,,,,,168.648,7.016,0.584,-7.101,-0.005,88.35,70.168
2.275,-0.1099,-4.0688,0.1191,-0.9104,-51.1204,-6.6527,35.1,99003.0,,,,,,,
2.28,,,,,,,,,169.18,6.984,0.585,-7.132,-0.013,89.45,69.782
2.285,-0.0703,-4.0498,0.0923,5.3221,-50.3501,-5.9524,35.1,98992.0,,,,,,,
2.29,,,,,,,,,169.706,6.953,0.587,-7.162,-0.02,90.04,69.584
2.295,-0.0889,-4.0264,0.1177,3.0112,-51.9608,-5.112,35.1,98985.0,,,,,,,
2.3,,,,,,,,,170.229,6.921,0.592,-7.192,-0.022,90.47,69.528
2.305,-0.0513,-4.0068,0.1079,1.1905,-52.451,-4.2717,35.1,99010.0,,,,,,,
2.31,,,,,,,,,170.744,6.889,0.596,-7.223,-0.025,90.72,69.103
2.315,-0.1094,-3.9819,0.0264,-0.2801,-52.2409,-3.6415,35.1,99000.0,,,,,,,
2.32,,,,,,,,,171.256,6.856,0.597,-7.254,-0.029,91.91,68.953
2.325,-0.1108,-3.9775,0.1826,0.2801,-50.8403,-2.8711,35.1,98979.0,,,,,,,
2.33,,,,,,,,,171.765,6.824,0.598,-7.284,-0.034,93.52,68.717
2.335,-0.0913,-3.9731,0.1255,2.381,-52.7311,-2.0308,35.1,98974.0,,,,,,,
2.34,,,,,,,,,172.267,6.792,0.598,-7.314,-0.037,94.12,68.35
2.345,-0.0459,-3.978,0.1045,-1.4006,-52.381,-1.5406,35.1,98999.0,,,,,,,
2.35,,,,,,,,,172.761,6.759,0.599,-7.345,-0.039,94.37,67.897
2.355,-0.0874,-3.9409,0.0962,1.2605,-49.1597,-0.7703,35.1,98988.0,,,,,,,
2.36,,,,,,,,,173.247,6.726,0.597,-7.375,-0.043,94.45,67.52
2.365,-0.0488,-3.9292,0.2153,2.7311,-47.1989,-0.4902,35.1,98928.0,,,,,,,
2.37,,,,,,,,,173.726,6.694,0.597,-7.403,-0.045,95.05,67.04
2.375,-0.1226,-3.9121,0.0591,1.1204,-43.7675,-0.1401,35.1,98984.0,,,,,,,
2.38,,,,,,,,,174.201,6.664,0.597,-7.431,-0.045,95.39,66.964
2.385,-0.0645,-3.8857,0.248,-1.3305,-46.1485,0.1401,35.1,98968.0,,,,,,,
2.39,,,,,,,,,174.672,6.636,0.596,-7.456,-0.046,95.64,66.955
2.395,-0.0347,-3.8823,0.0752,1.3305,-46.0084,0.3501,35.1,98961.0,,,,,,,
2.4,,,,,,,,,175.138,6.607,0.593,-7.482,-0.049,95.73,66.87
2.405,-0.1338,-3.8408,0.2417,-2.6611,-45.7983,0.7703,35.1,98912.0,,,,,,,
2.41,,,,,,,,,175.595,6.577,0.592,-7.508,-0.05,96.15,66.248
2.415,-0.0479,-3.8516,0.0669,0.6303,-47.0588,1.4706,35.1,98929.0,,,,,,,
2.42,,,,,,,,,176.046,6.548,0.588,-7.534,-0.053,96.58,66.022
2.425,-0.0518,-3.8481,0.208,1.6807,-48.1793,1.7507,35.1,98938.0,,,,,,,
2.43,,,,,,,,,176.491,6.518,0.586,-7.56,-0.053,97.08,65.692
2.435,-0.1489,-3.8184,0.0962,4.0616,-49.6499,1.7507,35.1,98929.0,,,,,,,
2.44,,,,,,,,,176.928,6.486,0.584,-7.588,-0.053,97.68,65.183
2.445,-0.0483,-3.791,0.2051,6.5126,-45.098,1.8908,35.1,98906.0,,,,,,,
2.45,,,,,,,,,177.363,6.454,0.583,-7.615,-0.051,99.63,65.117
2.455,0.0063,-3.7612,0.1382,2.0308,-42.3669,2.0308,35.1,98909.0,,,,,,,
2.46,,,,,,,,,177.79,6.424,0.584,-7.64,-0.048,100.39,64.524
2.465,-0.0884,-3.7793,0.1021,-2.521,-42.437,1.9608,35.1,98863.0,,,,,,,
2.47,,,,,,,,,178.213,6.396,0.582,-7.664,-0.047,100.39,64.458
2.475,-0.0215,-3.749,0.0981,-2.8711,-42.507,2.2409,35.1,98856.0,,,,,,,
2.48,,,,,,,,,178.629,6.368,0.577,-7.687,-0.049,100.39,64.316
2.485,-0.0239,-3.7368,0.1631,6.7227,-43.0672,2.381,35.1,98858.0,,,,,,,
2.49,,,,,,,,,179.04,6.341,0.572,-7.711,-0.052,101.84,63.883
2.495,-0.0835,-3.7173,0.0986,6.4426,-42.507,2.0308,35.1,98842.0,,,,,,,
2.5,,,,,,,,,179.441,6.312,0.572,-7.734,-0.047,102.09,63.355
2.505,0.0298,-3.7056,0.1567,2.381,-43.7675,1.4706,35.1,98854.0,,,,,,,
2.51,,,,,,,,,179.837,6.283,0.573,-7.757,-0.044,102.34,63.129
2.515,0.0142,-3.6997,0.0615,5.3922,-40.1261,0.9804,35.1,98830.0,,,,,,,
2.52,,,,,,,,,180.232,6.254,0.571,-7.781,-0.043,106.0,62.78
2.525,-0.0552,-3.689,0.1201,4.5518,-41.8067,0.4202,35.1,98806.0,,,,,,,
2.53,,,,,,,,,180.622,6.227,0.572,-7.803,-0.04,106.42,62.545
2.535,-0.0054,-3.6787,0.165,7.0028,-41.7367,0.0,35.1,98784.0,,,,,,,
2.54,,,,,,,,,181.005,6.199,0.572,-7.825,-0.038,106.59,62.309
2.545,0.043,-3.6382,0.085,3.0812,-40.6863,-0.9104,35.1,98795.0,,,,,,,
2.55,,,,,,,,,181.38,6.171,0.574,-7.847,-0.035,106.76,61.932
2.555,-0.104,-3.6562,0.0581,6.2325,-45.6583,-0.9804,35.1,98771.0,,,,,,,
2.56,,,,,,,,,181.751,6.143,0.575,-7.869,-0.035,107.78,61.706
2.565,-0.0142,-3.6274,0.1387,10.2941,-46.8487,-1.0504,35.1,98749.0,,,,,,,
2.57,,,,,,,,,182.119,6.112,0.577,-7.893,-0.033,108.8,61.593
2.575,-0.0137,-3.6021,0.1211,5.2521,-46.5686,-1.1204,35.1,98763.0,,,,,,,
2.58,,,,,,,,,182.484,6.08,0.581,-7.917,-0.029,110.84,61.386
2.585,-0.0693,-3.5757,0.062,6.3025,-44.3978,-1.2605,35.1,98720.0,,,,,,,
2.59,,,,,,,,,182.845,6.048,0.583,-7.942,-0.028,111.77,61.188
2.595,-0.0103,-3.5493,0.1079,3.3613,-46.1485,-1.3305,35.1,98697.0,,,,,,,
2.6,,,,,,,,,183.199,6.017,0.586,-7.965,-0.026,112.7,60.754
2.605,-0.0415,-3.5391,0.0913,4.4118,-45.4482,-1.2605,35.1,98695.0,,,,,,,
2.61,,,,,,,,,183.548,5.986,0.587,-7.988,-0.026,113.81,60.405
2.615,0.002,-3.521,0.0425,4.6919,-44.2577,-1.2605,35.1,98669.0,,,,,,,
2.62,,,,,,,,,183.892,5.954,0.588,-8.012,-0.026,114.49,60.198
2.625,-0.0337,-3.5103,0.1172,-0.3501,-46.8487,-1.7507,35.1,98661.0,,,,,,,
2.63,,,,,,,,,184.228,5.924,0.59,-8.034,-0.025,115.68,59.708
2.635,0.0259,-3.5,0.0449,-0.2801,-47.2689,-2.1709,35.1,98660.0,,,,,,,
2.64,,,,,,,,,184.561,5.891,0.589,-8.058,-0.028,118.15,59.199
2.645,-0.0571,-3.4844,0.0781,4.1317,-47.619,-2.521,35.1,98658.0,,,,,,,
2.65,,,,,,,,,184.889,5.859,0.589,-8.082,-0.031,120.1,58.69
2.655,0.0029,-3.4639,0.0625,5.042,-45.9384,-2.9412,35.1,98645.0,,,,,,,
2.66,,,,,,,,,185.21,5.825,0.591,-8.106,-0.032,120.27,58.492
2.665,-0.0234,-3.4268,0.0664,4.6218,-45.7283,-3.2913,35.1,98624.0,,,,,,,
2.67,,,,,,,,,185.528,5.793,0.594,-8.128,-0.032,122.48,58.144
2.675,-0.0454,-3.4551,0.1372,-1.7507,-47.2689,-3.7115,35.1,98592.0,,,,,,,
2.68,,,,,,,,,185.842,5.761,0.596,-8.151,-0.032,123.16,57.936
2.685,-0.02,-3.418,0.0356,2.451,-49.4398,-3.7815,35.1,98603.0,,,,,,,
2.69,,,,,,,,,186.148,5.728,0.596,-8.174,-0.037,123.25,57.739
2.695,-0.0747,-3.3701,0.0684,-1.9608,-50.2101,-3.7115,35.1,98580.0,,,,,,,
2.7,,,,,,,,,186.448,5.693,0.598,-8.198,-0.04,123.42,57.437
2.705,-0.0337,-3.3896,0.0977,-3.9916,-51.5406,-3.8515,35.1,98571.0,,,,,,,
2.71,,,,,,,,,186.742,5.658,0.598,-8.223,-0.045,124.52,57.041
2.715,-0.1245,-3.3403,0.0596,2.1709,-46.1485,-3.5014,35.1,98546.0,,,,,,,
2.72,,,,,,,,,187.034,5.622,0.597,-8.248,-0.052,126.31,56.872
2.725,-0.0688,-3.3345,0.2329,2.1709,-45.4482,-3.3613,35.1,98551.0,,,,,,,
2.73,,,,,,,,,187.319,5.589,0.599,-8.27,-0.054,128.1,56.325
2.735,-0.0264,-3.3184,-0.0742,-4.4118,-45.5882,-3.0812,35.1,98577.0,,,,,,,
2.74,,,,,,,,,187.601,5.557,0.601,-8.291,-0.056,129.03,56.155
2.745,-0.1567,-3.2881,0.1509,-2.0308,-47.1289,-2.451,35.1,98539.0,,,,,,,
2.75,,,,,,,,,187.875,5.524,0.599,-8.313,-0.063,130.05,55.609
2.755,-0.0928,-3.2729,-0.0078,-4.0616,-52.591,-2.0308,35.1,98513.0,,,,,,,
2.76,,,,,,,,,188.141,5.491,0.598,-8.335,-0.068,130.31,55.232
2.765,-0.0273,-3.271,0.0591,-1.6106,-53.0812,-1.1204,35.1,98487.0,,,,,,,
2.77,,,,,,,,,188.398,5.453,0.595,-8.36,-0.074,130.82,54.657
2.775,-0.0718,-3.2422,0.0771,-2.1008,-49.5098,-0.9804,35.1,98502.0,,,,,,,
2.78,,,,,,,,,188.654,5.415,0.593,-8.385,-0.079,132.52,54.544
2.785,-0.0679,-3.2319,0.0371,-1.6106,-48.4594,-0.9804,35.1,98482.0,,,,,,,
2.79,,,,,,,,,188.902,5.38,0.591,-8.408,-0.083,132.95,54.233
2.795,0.0273,-3.2036,0.0957,-1.1905,-51.2605,-0.6303,35.1,98486.0,,,,,,,
2.8,,,,,,,,,189.142,5.345,0.589,-8.43,-0.087,133.54,53.649
2.805,-0.0376,-3.1714,0.0693,-2.9412,-56.2325,-0.5602,35.1,98453.0,,,,,,,
2.81,,,,,,,,,189.379,5.308,0.587,-8.453,-0.09,135.76,53.357
2.815,-0.082,-3.1631,0.1377,0.9104,-57.2129,-0.4202,35.1,98481.0,,,,,,,
2.82,,,,,,,,,189.614,5.267,0.584,-8.479,-0.095,136.69,53.319
2.825,-0.0474,-3.1328,0.1543,-2.2409,-54.902,-0.2101,35.1,98473.0,,,,,,,
2.83,,,,,,,,,189.841,5.225,0.582,-8.505,-0.097,137.97,52.763
2.835,-0.0474,-3.104,0.084,0.7703,-52.8011,-0.2801,35.1,98507.0,,,,,,,
2.84,,,,,,,,,190.063,5.185,0.579,-8.53,-0.102,138.06,52.565
2.845,-0.0249,-3.1094,0.2349,5.6022,-51.5406,-0.6303,35.1,98454.0,,,,,,,
2.85,,,,,,,,,190.274,5.146,0.578,-8.553,-0.104,138.06,52.018
2.855,-0.0679,-3.1104,0.042,-2.9412,-50.1401,-0.7703,35.1,98455.0,,,,,,,
2.86,,,,,,,,,190.475,5.108,0.579,-8.576,-0.102,138.4,51.396
2.865,-0.0435,-3.0718,0.2114,-3.2913,-50.5602,-0.8403,35.1,98455.0,,,,,,,
2.87,,,,,,,,,190.67,5.071,0.576,-8.598,-0.107,138.48,51.236
2.875,-0.0278,-3.0371,0.1997,-2.6611,-49.2297,-0.8403,35.1,98451.0,,,,,,,
2.88,,,,,,,,,190.856,5.034,0.573,-8.62,-0.112,139.16,50.652
2.885,-0.0718,-3.0415,0.1724,-0.2101,-48.4594,-0.8403,35.1,98449.0,,,,,,,
2.89,,,,,,,,,191.037,4.998,0.57,-8.641,-0.117,140.7,50.219
2.895,-0.0723,-3.0249,0.1533,0.4202,-46.4986,-0.7003,35.1,98427.0,,,,,,,
2.9,,,,,,,,,191.214,4.962,0.568,-8.662,-0.119,140.7,50.2
2.905,-0.0146,-3.0107,0.1821,-0.5602,-43.6975,-0.6303,35.0,98428.0,,,,,,,
2.91,,,,,,,,,191.384,4.928,0.567,-8.682,-0.121,140.7,50.096
2.915,-0.084,-2.978,0.1914,0.5602,-45.5882,-0.6303,35.1,98407.0,,,,,,,
2.92,,,,,,,,,191.544,4.895,0.565,-8.7,-0.124,140.78,49.474
2.925,-0.0723,-2.9722,0.1646,2.2409,-46.7087,-0.2801,35.0,98428.0,,,,,,,
2.93,,,,,,,,,191.694,4.861,0.564,-8.719,-0.126,141.04,48.89
2.935,0.0225,-2.9302,0.1416,6.0924,-44.2577,-0.07,35.1,98423.0,,,,,,,
2.94,,,,,,,,,191.84,4.826,0.563,-8.739,-0.126,141.21,48.805
2.945,-0.0459,-2.9219,0.1611,10.6443,-45.098,0.07,35.1,98408.0,,,,,,,
2.95,,,,,,,,,191.982,4.793,0.563,-8.757,-0.124,143.0,48.569
2.955,-0.1035,-2.916,0.1982,7.0728,-45.7983,-0.07,35.1,98383.0,,,,,,,
2.96,,,,,,,,,192.118,4.758,0.565,-8.776,-0.118,143.0,48.296
2.965,-0.022,-2.8794,0.1108,2.591,-46.6387,0.07,35.0,98342.0,,,,,,,
2.97,,,,,,,,,192.243,4.723,0.566,-8.794,-0.114,143.08,47.665
2.975,0.0044,-2.8687,0.1929,4.2017,-45.8683,0.07,35.0,98347.0,,,,,,,
2.98,,,,,,,,,192.363,4.688,0.565,-8.813,-0.115,143.42,47.552
2.985,-0.1475,-2.8447,0.1299,4.7619,-44.2577,0.6303,35.1,98349.0,,,,,,,
2.99,,,,,,,,,192.473,4.653,0.564,-8.832,-0.113,144.7,46.741
2.995,0.0332,-2.8145,0.0991,3.3613,-47.9692,0.8403,35.0,98314.0,,,,,,,
3.0,,,,,,,,,192.578,4.62,0.564,-8.85,-0.111,144.79,46.581
3.005,-0.0469,-2.8022,0.2036,4.2017,-49.6499,0.6303,35.0,98332.0,,,,,,,
3.01,,,,,,,,,192.682,4.583,0.562,-8.869,-0.111,146.83,46.468
3.015,-0.1289,-2.7744,0.0908,3.2913,-50.7003,0.8403,35.0,98287.0,,,,,,,
3.02,,,,,,,,,192.782,4.545,0.561,-8.888,-0.11,149.73,45.761
3.025,0.0566,-2.7456,0.1045,4.8319,-49.4398,1.1204,35.1,98285.0,,,,,,,
3.03,,,,,,,,,192.877,4.506,0.56,-8.908,-0.109,149.9,45.554
3.035,-0.0396,-2.7759,0.1089,4.0616,-45.028,0.3501,35.0,98227.0,,,,,,,
3.04,,,,,,,,,192.963,4.468,0.559,-8.927,-0.107,150.33,45.092
3.045,-0.0132,-2.6802,0.084,5.3922,-47.479,0.2801,35.0,98220.0,,,,,,,
3.05,,,,,,,,,193.041,4.433,0.558,-8.945,-0.106,151.18,44.508
3.055,0.0312,-2.687,0.2041,4.0616,-48.1092,-0.2101,35.0,98202.0,,,,,,,
3.06,,,,,,,,,193.116,4.397,0.558,-8.963,-0.104,152.72,44.272
3.065,-0.0122,-2.6782,0.0098,2.6611,-48.1793,-0.9104,35.0,98150.0,,,,,,,
3.07,,,,,,,,,193.188,4.36,0.557,-8.981,-0.103,155.02,43.763
3.075,-0.0322,-2.6602,0.1108,6.8627,-47.0588,-0.7003,35.0,98161.0,,,,,,,
3.08,,,,,,,,,193.255,4.322,0.557,-8.999,-0.103,155.19,43.735
3.085,-0.0303,-2.6201,0.1367,1.7507,-49.5798,-1.4006,35.0,98158.0,,,,,,,
3.09,,,,,,,,,193.326,4.286,0.558,-9.017,-0.1,160.14,43.179
3.095,0.0254,-2.6216,0.0176,6.0924,-51.1204,-1.4706,35.0,98099.0,,,,,,,
3.1,,,,,,,,,193.382,4.247,0.558,-9.035,-0.102,160.74,42.048
3.105,-0.063,-2.5864,0.1157,3.7815,-53.2213,-2.1709,35.0,98072.0,,,,,,,
3.11,,,,,,,,,193.437,4.207,0.559,-9.053,-0.1,162.27,41.916
3.115,0.0239,-2.5376,0.0669,-0.7003,-53.7115,-2.451,35.0,98071.0,,,,,,,
3.12,,,,,,,,,193.496,4.166,0.56,-9.073,-0.1,165.78,41.879
3.125,0.0103,-2.5444,0.0605,5.8123,-52.8011,-2.9412,35.0,98019.0,,,,,,,
3.13,,,,,,,,,193.549,4.124,0.559,-9.092,-0.104,166.03,41.53
3.135,-0.0991,-2.5327,-0.0234,7.0028,-51.8207,-2.8011,35.0,98020.0,,,,,,,
3.14,,,,,,,,,193.591,4.082,0.562,-9.11,-0.103,166.71,40.785
3.145,-0.0649,-2.5215,0.0884,5.8824,-54.7619,-2.9412,35.0,97971.0,,,,,,,
3.15,,,,,,,,,193.64,4.041,0.564,-9.128,-0.101,171.07,40.757
3.155,0.0366,-2.5127,0.0532,3.9916,-53.0112,-3.1513,35.0,97975.0,,,,,,,
3.16,,,,,,,,,193.685,3.998,0.566,-9.147,-0.1,173.38,40.107
3.165,-0.146,-2.4614,0.0,1.7507,-53.6415,-2.9412,35.0,97957.0,,,,,,,
3.17,,,,,,,,,193.717,3.956,0.568,-9.165,-0.101,173.46,39.297
3.175,-0.0161,-2.4526,0.0635,6.7927,-56.0924,-2.7311,35.0,97946.0,,,,,,,
3.18,,,,,,,,,193.756,3.914,0.569,-9.183,-0.103,177.82,39.165
3.185,-0.0063,-2.4556,0.0537,8.1933,-54.4818,-2.6611,35.0,97928.0,,,,,,,
3.19,,,,,,,,,193.789,3.869,0.571,-9.202,-0.101,177.91,39.07
3.195,-0.1675,-2.4326,0.0518,7.0728,-56.0924,-2.1709,35.0,97930.0,,,,,,,
3.2,,,,,,,,,193.827,3.825,0.574,-9.22,-0.098,181.67,38.854
3.205,-0.0703,-2.4136,0.0273,5.8824,-54.0616,-2.1008,35.0,97921.0,,,,,,,
3.21,,,,,,,,,193.859,3.781,0.576,-9.239,-0.096,182.02,38.684
3.215,-0.0879,-2.3926,0.084,1.3305,-51.8207,-1.6106,35.0,97883.0,,,,,,,
3.22,,,,,,,,,193.88,3.737,0.577,-9.256,-0.095,183.21,37.695
3.225,-0.1138,-2.3574,-0.0415,9.3137,-49.5798,-0.9804,35.0,97880.0,,,,,,,
3.23,,,,,,,,,193.898,3.696,0.577,-9.273,-0.097,184.15,37.581
3.235,-0.1362,-2.3525,0.1919,0.4202,-49.3697,0.07,35.0,97884.0,,,,,,,
3.24,,,,,,,,,193.915,3.656,0.579,-9.289,-0.092,185.52,37.525
3.245,-0.0151,-2.3481,-0.1079,12.8852,-52.8011,0.4202,35.0,97877.0,,,,,,,
3.25,,,,,,,,,193.925,3.617,0.577,-9.304,-0.094,185.69,37.139
3.255,-0.0757,-2.3359,0.1099,10.4342,-45.7983,0.6303,35.0,97834.0,,,,,,,
3.26,,,,,,,,,193.928,3.574,0.578,-9.321,-0.087,186.29,36.771
3.265,-0.1143,-2.3096,0.04,-2.381,-44.3978,0.7703,35.0,97824.0,,,,,,,
3.27,,,,,,,,,193.931,3.537,0.579,-9.335,-0.08,189.46,36.366
3.275,-0.0073,-2.2793,-0.0903,1.8207,-46.9888,1.2605,35.0,97802.0,,,,,,,
3.28,,,,,,,,,193.924,3.501,0.576,-9.348,-0.084,189.54,35.687
3.285,-0.0884,-2.2607,0.103,-0.5602,-48.5994,0.9104,35.0,97779.0,,,,,,,
3.29,,,,,,,,,193.912,3.464,0.573,-9.362,-0.085,189.8,35.593
3.295,-0.0532,-2.2271,0.0137,0.9104,-47.549,0.8403,35.0,97775.0,,,,,,,
3.3,,,,,,,,,193.896,3.425,0.57,-9.377,-0.087,190.06,35.508
3.305,-0.0889,-2.2036,-0.0283,-5.6723,-49.1597,0.8403,35.0,97761.0,,,,,,,
3.31,,,,,,,,,193.883,3.386,0.568,-9.391,-0.089,193.74,35.273
3.315,-0.0352,-2.2061,0.0518,-3.1513,-49.5798,1.2605,35.0,97729.0,,,,,,,
3.32,,,,,,,,,193.864,3.347,0.563,-9.405,-0.096,194.6,34.764
3.325,0.0117,-2.1836,0.0811,-0.9104,-44.5378,0.8403,35.0,97732.0,,,,,,,
3.33,,,,,,,,,193.84,3.307,0.559,-9.419,-0.101,196.48,34.18
3.335,-0.0425,-2.1504,0.0493,-2.1008,-47.549,0.5602,35.0,97719.0,,,,,,,
3.34,,,,,,,,,193.814,3.271,0.556,-9.432,-0.103,198.45,33.821
3.345,-0.0557,-2.1157,0.0376,-6.8627,-53.3613,0.4902,35.0,97690.0,,,,,,,
3.35,,,,,,,,,193.778,3.233,0.553,-9.446,-0.107,198.79,33.171
3.355,0.0576,-2.1182,0.0327,0.7003,-52.381,0.2101,35.0,97694.0,,,,,,,
3.36,,,,,,,,,193.737,3.19,0.549,-9.46,-0.116,199.99,32.766
3.365,-0.0967,-2.0923,0.0884,-1.8207,-51.7507,0.0,35.0,97658.0,,,,,,,
3.37,,,,,,,,,193.698,3.147,0.546,-9.475,-0.117,202.48,32.719
3.375,0.0029,-2.0796,0.1011,1.9608,-51.6807,-0.3501,35.0,97658.0,,,,,,,
3.38,,,,,,,,,193.652,3.105,0.544,-9.489,-0.122,202.73,32.332
3.385,0.0049,-2.0693,0.0415,1.8207,-55.5322,-0.4902,35.0,97634.0,,,,,,,
3.39,,,,,,,,,193.598,3.063,0.542,-9.502,-0.123,203.59,31.692
3.395,-0.0283,-2.0356,0.0908,-1.8207,-61.1345,-0.7003,35.0,97636.0,,,,,,,
3.4,,,,,,,,,193.54,3.018,0.541,-9.517,-0.124,205.74,31.07
3.405,0.0044,-2.0527,0.1401,-3.9216,-67.1569,-1.2605,35.0,97630.0,,,,,,,
3.41,,,,,,,,,193.479,2.968,0.539,-9.533,-0.129,206.08,31.023
3.415,0.0332,-2.0288,0.0381,2.6611,-69.1176,-1.2605,35.0,97616.0,,,,,,,
3.42,,,,,,,,,193.416,2.913,0.536,-9.55,-0.136,208.82,30.57
3.425,-0.0249,-1.9658,0.1855,3.0812,-68.6975,-1.4706,35.0,97635.0,,,,,,,
3.43,,,,,,,,,193.347,2.855,0.536,-9.567,-0.137,208.82,30.325
3.435,-0.0884,-1.9937,0.0518,0.2101,-68.2073,-2.0308,35.0,97588.0,,,,,,,
3.44,,,,,,,,,193.278,2.799,0.535,-9.584,-0.138,210.71,30.127
3.445,0.0562,-1.9419,0.105,6.2325,-66.9468,-2.6611,35.0,97558.0,,,,,,,
3.45,,,,,,,,,193.201,2.742,0.534,-9.6,-0.142,210.8,29.807
3.455,-0.1294,-1.939,0.0298,-3.0112,-69.3277,-2.451,35.0,97539.0,,,,,,,
3.46,,,,,,,,,193.117,2.686,0.535,-9.616,-0.141,210.88,29.477
3.465,-0.0908,-1.8892,0.0752,-0.4902,-71.9888,-1.8908,35.0,97537.0,,,,,,,
3.47,,,,,,,,,193.029,2.629,0.534,-9.632,-0.147,211.22,29.345
3.475,0.0063,-1.8623,0.0967,-4.2017,-69.958,-1.8207,35.0,97516.0,,,,,,,
3.48,,,,,,,,,192.933,2.569,0.533,-9.648,-0.152,212.42,28.667
3.485,-0.0991,-1.8677,0.0693,1.1905,-76.4006,-1.6807,35.0,97516.0,,,,,,,
3.49,,,,,,,,,192.836,2.511,0.531,-9.663,-0.159,214.83,28.13
3.495,-0.0645,-1.8472,0.1362,2.1008,-73.3894,-1.5406,35.0,97488.0,,,,,,,
3.5,,,,,,,,,192.737,2.447,0.53,-9.679,-0.162,217.4,27.668
3.505,-0.064,-1.8232,0.1138,9.944,-74.2997,-1.4006,35.0,97472.0,,,,,,,
3.51,,,,,,,,,192.638,2.386,0.529,-9.695,-0.164,219.03,27.611
3.515,-0.0864,-1.7954,0.0376,9.1036,-70.4482,-1.3305,35.0,97401.0,,,,,,,
3.52,,,,,,,,,192.527,2.323,0.53,-9.71,-0.16,219.2,26.65
3.525,-0.0801,-1.8062,0.0386,5.7423,-72.549,-1.1204,35.0,97423.0,,,,,,,
3.53,,,,,,,,,192.412,2.264,0.53,-9.724,-0.156,221.01,26.235
3.535,-0.0903,-1.7368,0.021,9.2437,-76.5406,-0.2801,35.0,97368.0,,,,,,,
3.54,,,,,,,,,192.293,2.203,0.529,-9.738,-0.155,221.01,26.132
3.545,-0.1509,-1.707,0.0581,9.3137,-70.4482,-0.1401,35.0,97342.0,,,,,,,
3.55,,,,,,,,,192.173,2.138,0.529,-9.753,-0.151,223.41,25.84
3.555,-0.145,-1.6694,-0.0034,5.6723,-63.5854,0.4202,35.0,97382.0,,,,,,,
3.56,,,,,,,,,192.05,2.078,0.528,-9.766,-0.147,224.78,25.378
3.565,-0.0767,-1.6421,0.0659,6.4426,-67.0868,1.0504,35.0,97333.0,,,,,,,
3.57,,,,,,,,,191.932,2.024,0.526,-9.777,-0.145,228.99,25.048
3.575,-0.0898,-1.6377,0.0591,-0.2101,-64.3557,1.4706,35.0,97316.0,,,,,,,
3.58,,,,,,,,,191.813,1.968,0.524,-9.789,-0.143,230.89,24.841
3.585,-0.0708,-1.6118,-0.0098,6.1625,-65.4762,1.4006,35.0,97298.0,,,,,,,
3.59,,,,,,,,,191.684,1.913,0.52,-9.8,-0.146,232.52,23.71
3.595,-0.0952,-1.5957,-0.0776,-1.8207,-66.6667,1.2605,35.0,97273.0,,,,,,,
3.6,,,,,,,,,191.549,1.858,0.518,-9.811,-0.144,233.72,23.135
3.605,0.001,-1.5513,0.1118,4.972,-65.1261,1.0504,35.0,97224.0,,,,,,,
3.61,,,,,,,,,191.409,1.802,0.514,-9.821,-0.149,235.96,22.409
3.615,-0.1196,-1.5269,0.0527,5.9524,-71.9188,1.2605,35.0,97205.0,,,,,,,
3.62,,,,,,,,,191.263,1.746,0.511,-9.831,-0.147,236.73,21.882
3.625,0.0044,-1.5063,0.1016,4.2017,-62.9552,0.7003,35.0,97222.0,,,,,,,
3.63,,,,,,,,,191.116,1.685,0.508,-9.842,-0.146,238.19,21.797
3.635,-0.0703,-1.4751,0.0894,-1.1905,-65.5462,0.4902,35.0,97224.0,,,,,,,
3.64,,,,,,,,,190.965,1.632,0.506,-9.851,-0.145,239.74,21.297
3.645,-0.0459,-1.4956,0.0698,-0.5602,-63.5154,0.2801,35.0,97183.0,,,,,,,
3.65,,,,,,,,,190.813,1.576,0.503,-9.86,-0.149,241.89,20.986
3.655,-0.0166,-1.4678,0.0415,5.8824,-66.0364,-0.1401,35.0,97168.0,,,,,,,
3.66,,,,,,,,,190.662,1.522,0.5,-9.869,-0.153,246.11,20.129
3.665,-0.0122,-1.3091,0.1284,0.0,-62.8852,-0.5602,35.0,97123.0,,,,,,,
3.67,,,,,,,,,190.502,1.466,0.499,-9.878,-0.151,246.11,19.658
3.675,-0.0312,-1.2856,0.1143,5.112,-64.916,-1.3305,35.0,97130.0,,,,,,,
3.68,,,,,,,,,190.335,1.412,0.497,-9.886,-0.154,246.28,19.262
3.685,0.0127,-1.2075,0.0488,6.7227,-66.3165,-1.7507,35.0,97117.0,,,,,,,
3.69,,,,,,,,,190.166,1.357,0.496,-9.893,-0.153,247.74,19.055
3.695,-0.0444,-1.1699,0.0884,-1.9608,-70.2381,-3.0812,35.0,97108.0,,,,,,,
3.7,,,,,,,,,189.996,1.3,0.496,-9.901,-0.151,249.64,18.659
3.705,-0.0225,-1.1187,0.1274,5.042,-65.1261,-3.5014,35.0,97095.0,,,,,,,
3.71,,,,,,,,,189.824,1.24,0.496,-9.909,-0.157,250.93,18.517
3.715,-0.0557,-1.0601,0.125,11.2045,-66.6667,-4.1317,35.0,97021.0,,,,,,,
3.72,,,,,,,,,189.627,1.184,0.497,-9.915,-0.156,254.2,15.455
3.725,-0.0508,-0.9785,0.0493,-0.9104,-69.3277,-4.6919,35.0,97020.0,,,,,,,
3.73,,,,,,,,,189.424,1.126,0.499,-9.922,-0.15,254.8,15.002
3.735,-0.1416,-0.9189,0.0557,0.7703,-62.2549,-4.5518,35.0,97031.0,,,,,,,
3.74,,,,,,,,,189.204,1.067,0.5,-9.929,-0.155,255.32,13.495
3.745,-0.1094,-0.8608,0.0381,-2.591,-72.9692,-3.9916,35.0,96947.0,,,,,,,
3.75,,,,,,,,,188.975,1.014,0.502,-9.934,-0.158,256.1,12.769
3.755,-0.0874,-0.7896,0.0786,2.381,-70.8683,-4.0616,35.0,96937.0,,,,,,,
3.76,,,,,,,,,188.736,0.951,0.502,-9.94,-0.164,257.22,11.78
3.765,-0.252,-0.7725,0.0439,8.1232,-70.6583,-2.591,35.0,96906.0,,,,,,,
3.77,,,,,,,,,188.498,0.89,0.504,-9.946,-0.166,262.73,10.649
3.775,-0.0811,-0.687,0.0327,-0.5602,-66.4566,-2.2409,35.0,96877.0,,,,,,,
3.78,,,,,,,,,188.244,0.829,0.504,-9.951,-0.163,263.59,9.075
3.785,-0.188,-0.6494,-0.0137,3.5014,-65.2661,-1.7507,34.9,96856.0,,,,,,,
3.79,,,,,,,,,187.975,0.772,0.503,-9.955,-0.167,263.68,7.925
3.795,-0.1475,-0.5659,0.0386,9.1737,-60.7143,-0.9804,34.9,96805.0,,,,,,,
3.8,,,,,,,,,187.71,0.716,0.502,-9.96,-0.167,269.98,6.804
3.805,-0.0845,-0.5337,-0.0381,2.3109,-58.2633,-0.4902,34.9,96752.0,,,,,,,
3.81,,,,,,,,,187.43,0.664,0.501,-9.963,-0.163,270.84,5.428
3.815,-0.1768,-0.4717,-0.0781,3.0112,-61.0644,0.2801,34.9,96730.0,,,,,,,
3.82,,,,,,,,,187.151,0.614,0.5,-9.967,-0.164,273.51,5.098
3.825,-0.0879,-0.4497,0.0308,14.7759,-54.0616,1.1204,35.0,96676.0,,,,,,,
3.83,,,,,,,,,186.86,0.561,0.497,-9.97,-0.164,276.02,3.449
3.835,-0.0815,-0.4395,-0.0503,7.7731,-55.4622,1.1905,35.0,96705.0,,,,,,,
3.84,,,,,,,,,186.563,0.514,0.494,-9.973,-0.154,277.83,2.723
3.845,-0.2324,-0.3687,-0.0674,3.8515,-60.2941,2.1008,34.9,96655.0,,,,,,,
3.85,,,,,,,,,186.26,0.467,0.491,-9.975,-0.15,282.23,1.112
3.855,-0.0728,-0.3486,-0.0537,7.493,-63.4454,3.2913,34.9,96610.0,,,,,,,
3.86,,,,,,,,,185.961,0.415,0.487,-9.978,-0.15,286.81,0.49
3.865,-0.0376,-0.2837,-0.083,3.2213,-64.7059,3.4314,34.9,96599.0,,,,,,,
3.87,,,,,,,,,185.652,0.36,0.482,-9.98,-0.147,288.71,-0.707
3.875,-0.1377,-0.1899,-0.083,4.0616,-62.0448,3.8515,34.9,96546.0,,,,,,,
3.88,,,,,,,,,185.341,0.304,0.477,-9.982,-0.147,290.87,-1.131
3.885,-0.0083,-0.105,-0.1768,6.3025,-62.535,3.4314,34.9,96518.0,,,,,,,
3.89,,,,,,,,,185.033,0.251,0.471,-9.984,-0.147,293.38,-1.329
3.895,-0.082,-0.0156,-0.0776,3.2913,-59.6639,3.9216,34.9,96465.0,,,,,,,
3.9,,,,,,,,,184.712,0.197,0.466,-9.986,-0.144,295.2,-2.695
3.905,-0.0391,0.0156,-0.0747,-2.2409,-65.4762,3.7815,34.9,96475.0,,,,,,,
3.91,,,,,,,,,184.396,0.146,0.461,-9.987,-0.144,299.09,-3.082
3.915,-0.0391,0.0659,-0.0308,0.1401,-63.1653,3.8515,34.9,96422.0,,,,,,,
3.92,,,,,,,,,184.066,0.089,0.455,-9.988,-0.15,300.04,-4.335
3.925,-0.0298,0.1187,-0.0503,3.0112,-67.2969,3.5014,34.9,96394.0,,,,,,,
3.93,,,,,,,,,183.728,0.035,0.449,-9.988,-0.153,304.63,-6.144
3.935,-0.0034,0.1758,-0.0518,0.9804,-63.7955,2.8011,34.9,96359.0,,,,,,,
3.94,,,,,,,,,183.378,-0.022,0.444,-9.988,-0.153,307.05,-7.784
3.945,-0.0034,0.1895,0.0273,-6.6527,-64.0056,2.591,34.9,96348.0,,,,,,,
3.95,,,,,,,,,183.018,-0.077,0.439,-9.988,-0.155,310.78,-9.508
3.955,-0.0093,0.2466,-0.0054,-4.4818,-59.0336,1.8908,34.9,96325.0,,,,,,,
3.96,,,,,,,,,182.65,-0.132,0.434,-9.988,-0.164,311.64,-10.112
3.965,-0.0215,0.2734,0.0259,0.9104,-63.7955,1.4706,34.9,96296.0,,,,,,,
3.97,,,,,,,,,182.281,-0.182,0.43,-9.987,-0.171,315.37,-11.082
3.975,-0.0488,0.3105,0.0303,4.8319,-59.4538,1.0504,34.9,96264.0,,,,,,,
3.98,,,,,,,,,181.905,-0.237,0.426,-9.986,-0.174,317.79,-12.1
3.985,0.042,0.3418,0.0522,6.2325,-60.4342,0.07,34.9,96250.0,,,,,,,
3.99,,,,,,,,,181.523,-0.288,0.423,-9.985,-0.172,320.83,-13.203
3.995,-0.0439,0.3711,0.0952,5.3922,-60.9244,-0.2801,34.9,96207.0,,,,,,,
4.0,,,,,,,,,181.138,-0.34,0.42,-9.983,-0.17,321.78,-13.466
4.005,0.0068,0.396,0.0493,3.9916,-58.1232,-1.0504,35.0,96180.0,,,,,,,
4.01,,,,,,,,,180.743,-0.393,0.418,-9.982,-0.168,323.77,-14.569
4.015,0.0586,0.3984,-0.0171,0.4902,-58.8936,-1.4706,34.9,96141.0,,,,,,,
4.02,,,,,,,,,180.348,-0.443,0.416,-9.98,-0.167,326.29,-15.087
4.025,-0.0244,0.4082,0.0825,-0.1401,-61.4846,-2.381,34.9,96156.0,,,,,,,
4.03,,,,,,,,,179.95,-0.493,0.415,-9.977,-0.17,329.07,-15.803
4.035,0.0303,0.439,0.0259,7.0728,-65.8263,-3.0812,34.9,96085.0,,,,,,,
4.04,,,,,,,,,179.545,-0.546,0.415,-9.974,-0.173,330.28,-16.407
4.045,-0.0215,0.4351,0.0225,-1.8207,-67.9272,-4.2017,34.9,96054.0,,,,,,,
4.05,,,,,,,,,179.143,-0.603,0.415,-9.971,-0.169,334.01,-16.972
4.055,-0.0806,0.4355,-0.0288,1.5406,-73.0392,-4.2717,34.9,96032.0,,,,,,,
4.06,,,,,,,,,178.739,-0.661,0.416,-9.967,-0.174,336.36,-17.453
4.065,-0.1118,0.4907,-0.0366,7.8431,-63.5154,-3.5714,34.9,95965.0,,,,,,,
4.07,,,,,,,,,178.337,-0.724,0.417,-9.963,-0.176,338.44,-17.5
4.075,-0.1094,0.5068,0.0229,5.3221,-62.7451,-3.5014,34.9,95966.0,,,,,,,
4.08,,,,,,,,,177.934,-0.779,0.417,-9.959,-0.172,339.74,-17.688
4.085,-0.0864,0.5088,-0.019,4.902,-64.986,-2.381,34.9,95898.0,,,,,,,
4.09,,,,,,,,,177.536,-0.833,0.418,-9.954,-0.17,344.61,-18.206
4.095,-0.1489,0.5439,-0.0566,7.9832,-65.8964,-1.4706,34.9,95833.0,,,,,,,
4.1,,,,,,,,,177.142,-0.889,0.417,-9.95,-0.169,347.3,-18.216
4.105,-0.1304,0.5293,-0.02,8.5434,-63.1653,-0.8403,34.9,95831.0,,,,,,,
4.11,,,,,,,,,176.75,-0.946,0.415,-9.945,-0.165,349.21,-18.282
4.115,-0.0645,0.5581,-0.022,-2.1008,-61.0644,-0.7003,34.9,95759.0,,,,,,,
4.12,,,,,,,,,176.362,-1.0,0.413,-9.939,-0.161,354.95,-19.281
4.125,-0.1533,0.5708,-0.062,3.2913,-62.7451,0.4902,34.9,95770.0,,,,,,,
4.13,,,,,,,,,175.966,-1.052,0.411,-9.934,-0.165,355.04,-19.592
4.135,-0.062,0.6006,-0.043,8.5434,-72.1289,1.4006,34.9,95711.0,,,,,,,
4.14,,,,,,,,,175.584,-1.106,0.408,-9.928,-0.166,360.87,-19.629
4.145,-0.0186,0.6011,-0.0303,-0.4902,-72.9692,1.2605,34.9,95665.0,,,,,,,
4.15,,,,,,,,,175.212,-1.168,0.404,-9.921,-0.162,366.53,-20.025
4.155,-0.1035,0.6191,-0.0249,-0.9804,-68.9776,1.3305,34.9,95652.0,,,,,,,
4.16,,,,,,,,,174.834,-1.23,0.4,-9.914,-0.166,366.7,-20.308
4.165,-0.1294,0.6089,-0.0645,6.0224,-71.3585,1.7507,34.9,95610.0,,,,,,,
4.17,,,,,,,,,174.464,-1.289,0.396,-9.907,-0.17,372.02,-20.581
4.175,-0.1733,0.6353,-0.0239,1.2605,-77.591,2.8711,34.9,95578.0,,,,,,,
4.18,,,,,,,,,174.091,-1.35,0.392,-9.899,-0.168,372.97,-20.826
4.185,-0.0039,0.6777,-0.1084,0.2801,-73.4594,3.5714,34.9,95574.0,,,,,,,
4.19,,,,,,,,,173.722,-1.417,0.387,-9.89,-0.171,377.16,-21.401
4.195,-0.0156,0.6489,0.0122,1.4706,-76.1905,3.8515,34.9,95531.0,,,,,,,
4.2,,,,,,,,,173.36,-1.479,0.381,-9.881,-0.175,381.17,-21.41
4.205,-0.0479,0.6841,-0.1035,-2.0308,-74.2997,3.6415,34.9,95556.0,,,,,,,
4.21,,,,,,,,,172.996,-1.544,0.375,-9.871,-0.177,382.3,-21.561
4.215,0.0376,0.6987,0.0239,0.9104,-73.4594,3.1513,34.9,95523.0,,,,,,,
4.22,,,,,,,,,172.637,-1.607,0.369,-9.861,-0.183,385.97,-21.759
4.225,-0.0195,0.6885,-0.0278,-0.1401,-75.4902,2.591,34.9,95472.0,,,,,,,
4.23,,,,,,,,,172.279,-1.67,0.364,-9.851,-0.186,388.76,-22.07
4.235,-0.0391,0.7095,-0.0444,2.591,-74.4398,1.6106,34.9,95427.0,,,,,,,
4.24,,,,,,,,,171.916,-1.734,0.359,-9.84,-0.189,389.11,-22.334
4.245,-0.0645,0.7212,-0.0698,-0.2101,-69.0476,1.1905,34.9,95388.0,,,,,,,
4.25,,,,,,,,,171.547,-1.797,0.355,-9.828,-0.191,390.68,-22.89
4.255,-0.0347,0.7168,-0.0703,4.4118,-71.2185,1.4006,34.9,95353.0,,,,,,,
4.26,,,,,,,,,171.179,-1.855,0.351,-9.818,-0.194,392.86,-23.013
4.265,0.0469,0.7285,0.0166,-8.4034,-74.3697,0.6303,34.9,95327.0,,,,,,,
4.27,,,,,,,,,170.809,-1.916,0.347,-9.806,-0.194,393.56,-23.097
4.275,-0.0259,0.7529,-0.1021,-11.2745,-75.2801,0.2801,34.9,95279.0,,,,,,,
4.28,,,,,,,,,170.446,-1.978,0.345,-9.794,-0.204,398.01,-23.295
4.285,-0.0254,0.7388,-0.0508,-2.451,-74.3697,0.07,34.9,95249.0,,,,,,,
4.29,,,,,,,,,170.089,-2.042,0.344,-9.78,-0.217,401.94,-23.503
4.295,0.021,0.7466,-0.0498,-3.2913,-71.0084,-0.6303,34.9,95194.0,,,,,,,
4.3,,,,,,,,,169.737,-2.104,0.342,-9.767,-0.222,405.35,-23.644
4.305,-0.0137,0.7476,-0.0757,-3.4314,-70.4482,-0.9104,34.9,95228.0,,,,,,,
4.31,,,,,,,,,169.389,-2.164,0.34,-9.754,-0.228,408.41,-23.729
4.315,-0.085,0.7627,-0.0557,-0.9804,-68.6275,-1.4706,34.9,95193.0,,,,,,,
4.32,,,,,,,,,169.042,-2.223,0.339,-9.74,-0.234,410.68,-23.87
4.325,-0.084,0.7554,-0.0518,3.2213,-63.3754,-1.6807,34.9,95155.0,,,,,,,
4.33,,,,,,,,,168.702,-2.281,0.337,-9.727,-0.237,414.88,-24.068
4.335,-0.061,0.7534,-0.0342,0.07,-65.2661,-1.7507,34.9,95102.0,,,,,,,
4.34,,,,,,,,,168.364,-2.334,0.335,-9.715,-0.237,417.51,-24.219
4.345,0.0034,0.7603,-0.0298,-5.8123,-68.6975,-1.8207,34.9,95102.0,,,,,,,
4.35,,,,,,,,,168.028,-2.388,0.334,-9.701,-0.24,419.35,-24.238
4.355,-0.0483,0.7529,-0.0171,-8.4034,-71.2885,-1.4706,34.9,95045.0,,,,,,,
4.36,,,,,,,,,167.694,-2.446,0.334,-9.687,-0.247,422.32,-24.341
4.365,-0.0547,0.7422,-0.0146,-2.3109,-75.7003,-1.4006,34.9,95015.0,,,,,,,
4.37,,,,,,,,,167.357,-2.505,0.334,-9.671,-0.257,422.41,-24.341
4.375,-0.0581,0.7456,0.0156,2.451,-73.9496,-1.2605,34.9,95004.0,,,,,,,
4.38,,,,,,,,,167.025,-2.568,0.333,-9.655,-0.262,425.74,-24.341
4.385,-0.0742,0.7676,0.0151,0.2101,-74.7899,-0.7703,34.9,94966.0,,,,,,,
4.39,,,,,,,,,166.704,-2.629,0.331,-9.638,-0.263,430.38,-24.341
4.395,-0.0552,0.7432,0.0264,0.1401,-72.2689,-0.8403,34.9,94952.0,,,,,,,
4.4,,,,,,,,,166.377,-2.692,0.328,-9.621,-0.266,430.38,-24.351
4.405,-0.1104,0.7466,-0.0342,11.1345,-74.5098,-0.2801,34.9,94927.0,,,,,,,
4.41,,,,,,,,,166.062,-2.752,0.326,-9.604,-0.269,435.37,-24.351
4.415,-0.0239,0.7456,0.0186,5.1821,-70.6583,-0.2801,34.9,94918.0,,,,,,,
4.42,,,,,,,,,165.75,-2.814,0.32,-9.586,-0.262,438.01,-24.341
4.425,-0.0645,0.7534,-0.0132,-2.591,-69.6078,-0.3501,34.9,94837.0,,,,,,,
4.43,,,,,,,,,165.438,-2.872,0.316,-9.569,-0.261,438.97,-24.219
4.435,-0.1118,0.751,0.043,4.2017,-68.9776,0.2101,34.9,94830.0,,,,,,,
4.44,,,,,,,,,165.132,-2.929,0.315,-9.552,-0.266,442.3,-24.219
4.445,-0.0439,0.7549,-0.0068,2.8011,-67.6471,0.2101,34.9,94809.0,,,,,,,
4.45,,,,,,,,,164.825,-2.986,0.31,-9.534,-0.266,443.53,-24.219
4.455,-0.0947,0.7363,0.0498,1.1905,-69.6078,0.7003,34.9,94783.0,,,,,,,
4.46,,,,,,,,,164.52,-3.042,0.307,-9.517,-0.266,445.72,-24.219
4.465,-0.0586,0.7417,-0.0435,2.0308,-68.1373,1.0504,34.9,94763.0,,,,,,,
4.47,,,,,,,,,164.213,-3.099,0.303,-9.498,-0.268,446.51,-24.219
4.475,-0.0425,0.7607,0.0322,3.5014,-71.8487,1.5406,34.9,94740.0,,,,,,,
4.48,,,,,,,,,163.923,-3.154,0.299,-9.48,-0.27,453.62,-24.219
4.485,-0.0674,0.7456,-0.0605,-3.6415,-68.2773,1.4706,34.9,94702.0,,,,,,,
4.49,,,,,,,,,163.631,-3.213,0.294,-9.461,-0.27,454.24,-24.219
4.495,-0.0527,0.7271,-0.0308,-2.8011,-68.4874,1.5406,34.9,94687.0,,,,,,,
4.5,,,,,,,,,163.339,-3.269,0.29,-9.441,-0.277,456.08,-24.219
4.505,-0.0151,0.7495,0.0439,-3.9216,-65.2661,1.2605,34.9,94637.0,,,,,,,
4.51,,,,,,,,,163.05,-3.324,0.287,-9.422,-0.282,458.37,-24.2
4.515,-0.021,0.7368,-0.0728,-1.8207,-66.9468,1.7507,34.9,94636.0,,,,,,,
4.52,,,,,,,,,162.762,-3.377,0.284,-9.403,-0.289,460.12,-24.275
4.525,-0.0679,0.7261,0.0259,3.0812,-68.4174,1.3305,34.8,94618.0,,,,,,,
4.53,,,,,,,,,162.475,-3.431,0.281,-9.383,-0.293,462.15,-24.2
4.535,0.0469,0.7339,-0.0483,3.6415,-64.6359,0.9104,34.9,94556.0,,,,,,,
4.54,,,,,,,,,162.195,-3.486,0.276,-9.363,-0.294,465.49,-24.124
4.545,-0.043,0.7314,-0.0977,3.7115,-70.7283,0.6303,34.9,94559.0,,,,,,,
4.55,,,,,,,,,161.915,-3.538,0.271,-9.344,-0.294,466.81,-24.03
4.555,-0.0298,0.7412,0.0259,4.4818,-70.5882,0.2101,34.9,94530.0,,,,,,,
4.56,,,,,,,,,161.645,-3.595,0.266,-9.322,-0.294,471.2,-24.03
4.565,-0.0312,0.7183,-0.0566,0.8403,-65.4762,-0.3501,34.8,94466.0,,,,,,,
4.57,,,,,,,,,161.369,-3.652,0.262,-9.3,-0.293,471.29,-24.03
4.575,-0.0679,0.73,-0.0562,5.112,-70.028,-0.2801,34.9,94431.0,,,,,,,
4.58,,,,,,,,,161.095,-3.705,0.259,-9.279,-0.295,472.87,-23.974
4.585,-0.0371,0.7168,-0.0356,7.423,-66.6667,0.07,34.8,94387.0,,,,,,,
4.59,,,,,,,,,160.832,-3.761,0.254,-9.257,-0.294,478.07,-23.927
4.595,-0.0859,0.7339,-0.062,-0.3501,-67.2969,-0.07,34.8,94364.0,,,,,,,
4.6,,,,,,,,,160.566,-3.814,0.249,-9.236,-0.291,478.33,-23.927
4.605,-0.0376,0.7173,-0.0239,3.3613,-70.2381,0.6303,34.9,94356.0,,,,,,,
4.61,,,,,,,,,160.301,-3.867,0.246,-9.213,-0.293,480.62,-23.927
4.615,-0.0386,0.729,-0.0625,0.7703,-67.2969,0.4902,34.9,94281.0,,,,,,,
4.62,,,,,,,,,160.05,-3.923,0.242,-9.19,-0.294,486.26,-23.898
4.625,-0.0488,0.7305,-0.0317,4.4118,-66.1064,0.6303,34.9,94233.0,,,,,,,
4.63,,,,,,,,,159.803,-3.976,0.238,-9.167,-0.296,489.34,-23.898
4.635,-0.0312,0.729,-0.0996,3.7815,-70.028,0.3501,34.9,94255.0,,,,,,,
4.64,,,,,,,,,159.564,-4.028,0.233,-9.144,-0.295,493.22,-23.898
4.645,-0.0059,0.6963,0.0142,-3.7815,-66.8768,0.4202,34.9,94186.0,,,,,,,
4.65,,,,,,,,,159.326,-4.084,0.229,-9.12,-0.295,495.25,-23.879
4.655,-0.0488,0.7334,-0.1445,1.6807,-70.3782,0.7703,34.8,94162.0,,,,,,,
4.66,,,,,,,,,159.085,-4.136,0.227,-9.096,-0.301,495.95,-23.879
4.665,-0.0371,0.7109,0.002,0.5602,-75.1401,0.4902,34.9,94129.0,,,,,,,
4.67,,,,,,,,,158.86,-4.191,0.223,-9.071,-0.302,502.57,-23.879
4.675,-0.0537,0.7046,-0.0474,-4.7619,-73.7395,0.7003,34.9,94093.0,,,,,,,
4.68,,,,,,,,,158.637,-4.25,0.219,-9.043,-0.305,504.86,-23.879
4.685,-0.0825,0.7026,-0.0059,-3.4314,-75.1401,0.8403,34.8,94067.0,,,,,,,
4.69,,,,,,,,,158.415,-4.307,0.217,-9.016,-0.311,506.8,-23.879
4.695,-0.061,0.7285,-0.0249,4.2017,-75.5602,1.1905,34.8,94065.0,,,,,,,
4.7,,,,,,,,,158.203,-4.365,0.215,-8.988,-0.317,510.96,-23.653
4.705,-0.1133,0.707,-0.0659,-0.4902,-70.9384,1.5406,34.9,94012.0,,,,,,,
4.71,,,,,,,,,157.99,-4.424,0.209,-8.959,-0.317,513.07,-23.87
4.715,-0.0337,0.7183,0.0171,-4.1317,-72.9692,1.6106,34.8,93992.0,,,,,,,
4.72,,,,,,,,,157.785,-4.479,0.205,-8.932,-0.32,515.99,-23.531
4.725,-0.0957,0.7139,-0.043,-2.451,-74.0896,1.8908,34.8,93981.0,,,,,,,
4.73,,,,,,,,,157.584,-4.535,0.202,-8.904,-0.327,519.17,-23.531
4.735,-0.0996,0.707,-0.001,-2.381,-69.4678,2.3109,34.8,93930.0,,,,,,,
4.74,,,,,,,,,157.386,-4.591,0.199,-8.875,-0.332,521.47,-23.531
4.745,-0.0781,0.7021,0.0254,0.9104,-70.8683,2.8711,34.8,93901.0,,,,,,,
4.75,,,,,,,,,157.182,-4.644,0.195,-8.847,-0.337,521.65,-23.531
4.755,-0.0615,0.7046,0.0386,-3.5014,-66.3866,3.0112,34.8,93900.0,,,,,,,
4.76,,,,,,,,,156.989,-4.698,0.189,-8.818,-0.34,526.33,-23.455
4.765,-0.0259,0.7085,0.0425,3.9216,-67.7871,3.2913,34.8,93880.0,,,,,,,
4.77,,,,,,,,,156.796,-4.748,0.185,-8.791,-0.347,528.1,-23.455
4.775,-0.0225,0.6943,0.0439,0.9804,-67.9972,3.0812,34.8,93832.0,,,,,,,
4.78,,,,,,,,,156.601,-4.799,0.178,-8.764,-0.347,529.07,-23.455
4.785,-0.0903,0.7085,0.0166,0.3501,-65.9664,3.1513,34.8,93820.0,,,,,,,
4.79,,,,,,,,,156.415,-4.851,0.172,-8.735,-0.35,533.59,-23.455
4.795,-0.019,0.6919,0.0493,0.6303,-69.1877,3.2213,34.8,93779.0,,,,,,,
4.8,,,,,,,,,156.231,-4.9,0.167,-8.708,-0.354,536.15,-23.455
4.805,-0.002,0.6826,-0.019,2.7311,-68.1373,2.9412,34.8,93747.0,,,,,,,
4.81,,,,,,,,,156.043,-4.952,0.161,-8.678,-0.357,536.24,-23.455
4.815,-0.0684,0.7007,0.0508,0.7703,-69.5378,2.521,34.8,93755.0,,,,,,,
4.82,,,,,,,,,155.855,-5.003,0.154,-8.649,-0.359,538.01,-23.408
4.825,0.02,0.6802,-0.0142,1.7507,-69.6078,2.2409,34.8,93710.0,,,,,,,
4.83,,,,,,,,,155.676,-5.054,0.149,-8.619,-0.361,542.26,-23.361
4.835,-0.0757,0.6919,0.0298,7.0028,-69.6078,2.3109,34.8,93689.0,,,,,,,
4.84,,,,,,,,,155.495,-5.106,0.143,-8.589,-0.363,543.33,-23.333
4.845,0.0161,0.6821,0.0098,8.4734,-65.6863,1.7507,34.8,93685.0,,,,,,,
4.85,,,,,,,,,155.321,-5.157,0.135,-8.558,-0.361,546.96,-23.21
4.855,-0.0239,0.6992,-0.0225,4.7619,-62.465,1.1204,34.8,93625.0,,,,,,,
4.86,,,,,,,,,155.149,-5.206,0.127,-8.529,-0.358,549.09,-23.163
4.865,-0.0078,0.6812,-0.0049,5.7423,-61.4146,0.8403,34.8,93597.0,,,,,,,
4.87,,,,,,,,,154.974,-5.251,0.121,-8.501,-0.357,549.79,-23.163
4.875,-0.0137,0.686,-0.0273,0.7703,-60.7843,0.7003,34.8,93553.0,,,,,,,
4.88,,,,,,,,,154.804,-5.296,0.115,-8.473,-0.355,553.08,-23.163
4.885,0.0215,0.6655,0.0259,6.3725,-63.7255,0.0,34.8,93522.0,,,,,,,
4.89,,,,,,,,,154.635,-5.34,0.111,-8.445,-0.357,554.94,-23.05
4.895,-0.0293,0.6885,-0.0854,6.5826,-63.6555,-0.4202,34.8,93484.0,,,,,,,
4.9,,,,,,,,,154.463,-5.387,0.106,-8.416,-0.354,555.29,-22.984
4.905,0.0337,0.6826,-0.0093,-0.7003,-67.7871,-0.8403,34.8,93462.0,,,,,,,
4.91,,,,,,,,,154.301,-5.433,0.1,-8.387,-0.351,560.61,-23.05
4.915,-0.022,0.6602,-0.0928,-1.1204,-69.958,-1.0504,34.8,93416.0,,,,,,,
4.92,,,,,,,,,154.143,-5.482,0.098,-8.355,-0.353,563.1,-22.984
4.925,-0.0425,0.6802,-0.0791,-1.3305,-69.8179,-1.4006,34.8,93369.0,,,,,,,
4.93,,,,,,,,,153.991,-5.532,0.096,-8.321,-0.356,567.01,-22.984
4.935,0.0127,0.6626,-0.0264,3.5714,-71.3585,-1.4006,34.8,93333.0,,,,,,,
4.94,,,,,,,,,153.842,-5.582,0.095,-8.288,-0.358,569.76,-22.975
4.945,-0.0391,0.6646,-0.0918,3.0112,-76.2605,-1.3305,34.8,93322.0,,,,,,,
4.95,,,,,,,,,153.698,-5.633,0.091,-8.254,-0.357,573.13,-22.956
4.955,-0.0649,0.666,-0.0762,5.1821,-78.2213,-1.4006,34.8,93270.0,,,,,,,
4.96,,,,,,,,,153.555,-5.687,0.087,-8.216,-0.356,575.09,-22.937
4.965,-0.0142,0.6772,-0.0859,0.4202,-77.9412,-1.4706,34.8,93237.0,,,,,,,
4.97,,,,,,,,,153.422,-5.743,0.082,-8.178,-0.353,579.18,-22.664
4.975,-0.0786,0.6631,-0.02,-5.3922,-76.8908,-1.4706,34.8,93217.0,,,,,,,
4.98,,,,,,,,,153.296,-5.797,0.08,-8.139,-0.354,583.36,-22.664
4.985,-0.0654,0.6611,-0.064,-0.3501,-73.3894,-1.1204,34.8,93196.0,,,,,,,
4.99,,,,,,,,,153.175,-5.851,0.08,-8.1,-0.359,586.56,-22.664
4.995,-0.0605,0.6509,-0.0728,-0.1401,-73.3193,-1.0504,34.8,93162.0,,,,,,,
5.0,,,,,,,,,153.051,-5.903,0.078,-8.063,-0.361,587.54,-22.636
5.005,-0.0991,0.6621,-0.0459,0.1401,-72.549,-1.0504,34.8,93132.0,,,,,,,
5.01,,,,,,,,,152.937,-5.953,0.076,-8.025,-0.363,592.17,-22.607
5.015,-0.0767,0.6602,-0.0132,2.9412,-73.5994,-0.6303,34.8,93110.0,,,,,,,
5.02,,,,,,,,,152.825,-6.004,0.073,-7.988,-0.364,595.1,-22.607
5.025,-0.0732,0.6592,-0.0581,1.8908,-71.8487,-0.07,34.8,93067.0,,,,,,,
5.03,,,,,,,,,152.714,-6.054,0.069,-7.95,-0.363,596.88,-22.598
5.035,-0.0288,0.6509,-0.001,-2.2409,-70.098,0.07,34.8,93071.0,,,,,,,
5.04,,,,,,,,,152.602,-6.103,0.065,-7.912,-0.364,598.75,-22.588
5.045,-0.0601,0.6694,-0.0054,1.8908,-69.888,0.7003,34.8,93052.0,,,,,,,
5.05,,,,,,,,,152.495,-6.151,0.063,-7.875,-0.367,601.78,-22.57
5.055,-0.0547,0.6509,0.0,2.0308,-71.3585,1.0504,34.8,93004.0,,,,,,,
5.06,,,,,,,,,152.39,-6.198,0.059,-7.838,-0.368,604.46,-22.57
5.065,-0.0996,0.6562,-0.064,6.7927,-70.4482,1.3305,34.8,92965.0,,,,,,,
5.07,,,,,,,,,152.286,-6.246,0.054,-7.799,-0.369,606.42,-22.551
5.075,-0.0786,0.6553,0.0312,1.1905,-73.1092,1.6807,34.8,92940.0,,,,,,,
5.08,,,,,,,,,152.187,-6.293,0.046,-7.761,-0.367,609.89,-22.532
5.085,-0.0723,0.6519,-0.0293,0.6303,-71.7087,2.1709,34.8,92919.0,,,,,,,
5.09,,,,,,,,,152.084,-6.342,0.041,-7.722,-0.369,610.25,-22.475
5.095,-0.0908,0.6392,0.0332,2.7311,-73.1793,2.7311,34.8,92888.0,,,,,,,
5.1,,,,,,,,,151.979,-6.39,0.037,-7.682,-0.372,611.59,-22.475
5.105,-0.0508,0.6548,-0.022,0.2801,-73.8796,3.3613,34.8,92870.0,,,,,,,
5.11,,,,,,,,,151.882,-6.438,0.03,-7.642,-0.373,615.87,-22.457
5.115,-0.1152,0.6499,-0.0132,0.2101,-72.8992,3.4314,34.8,92804.0,,,,,,,
5.12,,,,,,,,,151.79,-6.486,0.025,-7.601,-0.377,619.35,-22.447
5.125,-0.0571,0.6367,-0.0098,-5.9524,-75.07,3.8515,34.8,92790.0,,,,,,,
5.13,,,,,,,,,151.699,-6.534,0.019,-7.56,-0.38,621.58,-22.391
5.135,0.0122,0.6602,0.085,-2.1709,-71.9188,3.7815,34.8,92789.0,,,,,,,
5.14,,,,,,,,,151.609,-6.583,0.017,-7.517,-0.388,623.46,-22.391
5.145,-0.0674,0.6343,-0.0322,5.1821,-73.2493,3.9916,34.8,92753.0,,,,,,,
5.15,,,,,,,,,151.521,-6.629,0.012,-7.476,-0.393,626.22,-22.391
5.155,-0.0825,0.6528,0.0762,3.2913,-71.4986,3.8515,34.8,92736.0,,,,,,,
5.16,,,,,,,,,151.432,-6.676,0.004,-7.434,-0.394,627.83,-22.391
5.165,-0.043,0.625,-0.0435,5.7423,-70.1681,3.9916,34.8,92704.0,,,,,,,
5.17,,,,,,,,,151.356,-6.721,-0.003,-7.393,-0.395,633.73,-22.391
5.175,-0.0229,0.6548,0.0635,1.7507,-69.3978,3.8515,34.8,92662.0,,,,,,,
5.18,,,,,,,,,151.278,-6.766,-0.012,-7.352,-0.395,634.98,-22.353
5.185,-0.0801,0.6533,-0.0156,0.7703,-71.7087,3.9216,34.8,92637.0,,,,,,,
5.19,,,,,,,,,151.194,-6.81,-0.018,-7.311,-0.398,635.07,-22.353
5.195,-0.0215,0.6436,-0.0361,5.3221,-70.098,4.0616,34.8,92592.0,,,,,,,
5.2,,,,,,,,,151.114,-6.854,-0.025,-7.269,-0.401,638.29,-22.409
5.205,-0.0063,0.6455,0.0166,8.1232,-69.0476,3.7815,34.8,92560.0,,,,,,,
5.21,,,,,,,,,151.034,-6.898,-0.033,-7.228,-0.402,639.81,-22.353
5.215,-0.0391,0.6206,-0.0449,-1.4706,-71.7087,3.7115,34.8,92535.0,,,,,,,
5.22,,,,,,,,,150.957,-6.941,-0.044,-7.187,-0.4,642.67,-22.268
5.225,-0.0278,0.6221,-0.041,6.9328,-72.6891,3.5014,34.8,92532.0,,,,,,,
5.23,,,,,,,,,150.885,-6.985,-0.048,-7.143,-0.405,646.43,-22.268
5.235,-0.0151,0.6343,-0.042,-0.1401,-70.6583,3.2913,34.8,92475.0,,,,,,,
5.24,,,,,,,,,150.815,-7.029,-0.058,-7.1,-0.404,648.66,-22.23
5.245,-0.0317,0.6182,-0.063,0.4202,-72.479,2.8711,34.8,92442.0,,,,,,,
5.25,,,,,,,,,150.752,-7.072,-0.063,-7.057,-0.407,652.69,-22.23
5.255,-0.0493,0.6372,-0.0356,8.4034,-72.479,2.7311,34.8,92417.0,,,,,,,
5.26,,,,,,,,,150.693,-7.116,-0.068,-7.012,-0.41,655.56,-22.051
5.265,-0.0947,0.6055,-0.0532,2.3109,-69.6779,2.7311,34.8,92395.0,,,,,,,
5.27,,,,,,,,,150.634,-7.16,-0.078,-6.968,-0.407,657.8,-22.108
5.275,0.002,0.6299,-0.085,1.9608,-65.8964,2.521,34.8,92350.0,,,,,,,
5.28,,,,,,,,,150.571,-7.201,-0.084,-6.925,-0.409,658.07,-22.051
5.285,0.0029,0.6284,-0.0894,-0.8403,-68.6275,2.381,34.8,92321.0,,,,,,,
5.29,,,,,,,,,150.518,-7.24,-0.09,-6.884,-0.41,663.17,-21.966
5.295,-0.0615,0.6201,-0.0127,1.2605,-70.098,2.381,34.8,92287.0,,,,,,,
5.3,,,,,,,,,150.469,-7.281,-0.094,-6.841,-0.413,666.13,-21.938
5.305,-0.0332,0.6084,-0.104,-0.3501,-66.4566,2.1008,34.8,92269.0,,,,,,,
5.31,,,,,,,,,150.421,-7.322,-0.099,-6.796,-0.415,668.37,-21.816
5.315,-0.0146,0.6304,-0.0479,-0.5602,-68.9076,1.8207,34.8,92219.0,,,,,,,
5.32,,,,,,,,,150.374,-7.361,-0.103,-6.754,-0.418,670.35,-21.816
5.325,-0.0107,0.5986,-0.0654,3.5714,-67.6471,1.6807,34.8,92214.0,,,,,,,
5.33,,,,,,,,,150.331,-7.401,-0.107,-6.71,-0.42,674.39,-21.938
5.335,-0.0557,0.6133,-0.0454,-0.1401,-69.6078,1.8207,34.8,92176.0,,,,,,,
5.34,,,,,,,,,150.292,-7.439,-0.113,-6.667,-0.42,676.99,-21.778
5.345,0.0186,0.6206,-0.0547,-3.8515,-65.056,1.6807,34.8,92159.0,,,,,,,
5.35,,,,,,,,,150.256,-7.479,-0.117,-6.622,-0.422,680.04,-21.778
5.355,-0.0322,0.6196,-0.0186,4.4818,-66.1064,1.4006,34.8,92104.0,,,,,,,
5.36,,,,,,,,,150.219,-7.516,-0.118,-6.58,-0.427,681.66,-21.778
5.365,-0.0591,0.6333,-0.0674,-0.8403,-66.5266,1.2605,34.8,92098.0,,,,,,,
5.37,,,,,,,,,150.19,-7.553,-0.125,-6.537,-0.426,686.15,-21.778
5.375,-0.0005,0.5977,0.001,-7.7731,-65.8964,1.0504,34.8,92059.0,,,,,,,
5.38,,,,,,,,,150.156,-7.591,-0.128,-6.494,-0.428,686.6,-21.778
5.385,-0.0659,0.6064,-0.0293,-1.4006,-64.6359,0.9804,34.8,92030.0,,,,,,,
5.39,,,,,,,,,150.126,-7.627,-0.127,-6.45,-0.434,690.01,-21.769
5.395,-0.0938,0.6128,-0.0312,-2.3109,-65.4762,1.1204,34.8,91999.0,,,,,,,
5.4,,,,,,,,,150.096,-7.663,-0.129,-6.407,-0.436,691.54,-21.646
5.405,-0.0034,0.6089,0.0107,-3.2213,-66.0364,1.2605,34.8,91983.0,,,,,,,
5.41,,,,,,,,,150.074,-7.699,-0.131,-6.364,-0.439,696.48,-21.646
5.415,-0.1011,0.5996,-0.0625,3.5014,-65.6863,1.5406,34.8,91938.0,,,,,,,
5.42,,,,,,,,,150.049,-7.735,-0.133,-6.32,-0.443,697.02,-21.637
5.425,-0.0283,0.6104,-0.0229,1.4706,-64.0756,1.6807,34.8,91919.0,,,,,,,
5.43,,,,,,,,,150.027,-7.771,-0.139,-6.276,-0.443,700.53,-21.637
5.435,-0.0684,0.5967,-0.0317,-4.2717,-61.1345,1.8908,34.8,91905.0,,,,,,,
5.44,,,,,,,,,150.008,-7.805,-0.144,-6.233,-0.444,703.14,-21.59
5.445,-0.1113,0.6147,0.0244,2.0308,-59.0336,1.9608,34.8,91869.0,,,,,,,
5.45,,,,,,,,,149.992,-7.838,-0.144,-6.191,-0.448,705.93,-21.561
5.455,0.0225,0.5781,-0.0195,-4.0616,-57.9832,1.8908,34.8,91835.0,,,,,,,
5.46,,,,,,,,,149.973,-7.869,-0.15,-6.151,-0.45,707.37,-21.561
5.465,-0.0718,0.6152,0.0151,-2.1008,-59.3137,2.1008,34.8,91824.0,,,,,,,
5.47,,,,,,,,,149.961,-7.899,-0.15,-6.112,-0.454,711.42,-21.514
5.475,-0.0093,0.6021,0.0381,-2.0308,-57.7031,1.8908,34.8,91806.0,,,,,,,
5.48,,,,,,,,,149.948,-7.93,-0.153,-6.071,-0.457,713.13,-21.561
5.485,-0.0107,0.6079,-0.0044,1.7507,-57.9132,2.0308,34.8,91790.0,,,,,,,
5.49,,,,,,,,,149.932,-7.96,-0.155,-6.032,-0.461,714.39,-21.561
5.495,-0.0591,0.6011,0.021,0.0,-61.5546,2.0308,34.8,91750.0,,,,,,,
5.5,,,,,,,,,149.92,-7.99,-0.16,-5.992,-0.462,717.63,-21.542
5.505,-0.0283,0.5928,0.0293,4.3417,-64.0756,1.8908,34.8,91712.0,,,,,,,
5.51,,,,,,,,,149.912,-8.022,-0.164,-5.949,-0.464,720.7,-21.429
5.515,-0.0317,0.584,-0.0122,2.6611,-59.5938,1.6106,34.8,91711.0,,,,,,,
5.52,,,,,,,,,149.901,-8.054,-0.171,-5.905,-0.464,721.69,-21.429
5.525,-0.063,0.585,0.002,0.9104,-55.6022,1.5406,34.8,91675.0,,,,,,,
5.53,,,,,,,,,149.889,-8.084,-0.176,-5.864,-0.465,723.31,-21.41
5.535,0.0029,0.6021,0.0669,7.1429,-60.6443,1.6807,34.8,91651.0,,,,,,,
5.54,,,,,,,,,149.875,-8.112,-0.18,-5.825,-0.466,724.76,-21.41
5.545,-0.0522,0.5928,-0.041,3.8515,-58.4734,1.5406,34.8,91601.0,,,,,,,
5.55,,,,,,,,,149.866,-8.142,-0.189,-5.783,-0.464,728.37,-21.41
5.555,-0.0615,0.5947,0.0312,6.5126,-60.9244,1.6106,34.8,91567.0,,,,,,,
5.56,,,,,,,,,149.86,-8.171,-0.195,-5.742,-0.464,731.79,-21.41
5.565,0.0049,0.585,-0.0078,2.1709,-60.084,1.4706,34.8,91545.0,,,,,,,
5.57,,,,,,,,,149.85,-8.201,-0.204,-5.699,-0.463,731.88,-21.288
5.575,-0.0386,0.5771,0.0229,10.014,-60.3641,1.5406,34.8,91543.0,,,,,,,
5.58,,,,,,,,,149.844,-8.23,-0.208,-5.656,-0.463,735.13,-21.25
5.585,-0.0669,0.5879,-0.0034,7.7031,-61.4146,1.3305,34.8,91511.0,,,,,,,
5.59,,,,,,,,,149.838,-8.259,-0.219,-5.614,-0.46,737.3,-21.25
5.595,-0.0112,0.5703,-0.0176,2.8011,-60.7143,1.4006,34.8,91456.0,,,,,,,
5.6,,,,,,,,,149.841,-8.288,-0.228,-5.57,-0.458,741.81,-21.156
5.605,-0.0327,0.5991,-0.0547,3.2213,-62.535,1.5406,34.8,91416.0,,,,,,,
5.61,,,,,,,,,149.846,-8.317,-0.233,-5.527,-0.458,744.89,-21.1
5.615,-0.0513,0.563,0.0166,2.6611,-63.1653,1.4706,34.8,91434.0,,,,,,,
5.62,,,,,,,,,149.851,-8.347,-0.239,-5.482,-0.458,746.87,-21.156
5.625,-0.0176,0.5767,-0.0522,1.4006,-61.5546,1.1204,34.8,91421.0,,,,,,,
5.63,,,,,,,,,149.851,-8.376,-0.245,-5.437,-0.458,747.05,-21.156
5.635,-0.0566,0.5786,-0.0132,2.3109,-64.4958,1.6106,34.8,91370.0,,,,,,,
5.64,,,,,,,,,149.853,-8.405,-0.249,-5.392,-0.458,749.95,-21.1
5.645,-0.0376,0.5913,-0.0439,5.7423,-68.2073,1.5406,34.7,91332.0,,,,,,,
5.65,,,,,,,,,149.865,-8.434,-0.254,-5.345,-0.459,754.92,-20.977
5.655,-0.0513,0.5747,-0.0308,2.8711,-66.8067,1.4706,34.8,91284.0,,,,,,,
5.66,,,,,,,,,149.877,-8.465,-0.262,-5.296,-0.457,756.91,-20.977
5.665,-0.0229,0.564,-0.0288,2.451,-67.2269,1.4006,34.8,91286.0,,,,,,,
5.67,,,,,,,,,149.886,-8.496,-0.268,-5.247,-0.457,758.08,-20.949
5.675,-0.041,0.5674,-0.0776,1.9608,-71.4986,1.6807,34.8,91240.0,,,,,,,
5.68,,,,,,,,,149.89,-8.526,-0.273,-5.197,-0.457,758.54,-20.939
5.685,-0.0278,0.5723,0.0229,1.6807,-68.4174,1.7507,34.8,91212.0,,,,,,,
5.69,,,,,,,,,149.901,-8.558,-0.278,-5.145,-0.457,762.7,-20.902
5.695,-0.0752,0.5542,-0.0693,1.4006,-68.4174,1.6807,34.8,91201.0,,,,,,,
5.7,,,,,,,,,149.916,-8.588,-0.283,-5.094,-0.458,766.14,-20.902
5.705,0.0054,0.5718,-0.0352,-0.1401,-69.4678,1.8207,34.8,91165.0,,,,,,,
5.71,,,,,,,,,149.937,-8.617,-0.288,-5.043,-0.459,770.3,-20.854
5.715,-0.0405,0.5659,-0.0435,0.7003,-71.7787,1.6807,34.8,91175.0,,,,,,,
5.72,,,,,,,,,149.953,-8.647,-0.292,-4.991,-0.46,770.49,-20.854
5.725,-0.0571,0.5674,-0.04,-1.5406,-70.3081,1.7507,34.8,91130.0,,,,,,,
5.73,,,,,,,,,149.974,-8.678,-0.296,-4.938,-0.461,774.47,-20.845
5.735,-0.0371,0.563,-0.0186,2.3109,-71.2885,1.8908,34.8,91084.0,,,,,,,
5.74,,,,,,,,,149.997,-8.708,-0.299,-4.885,-0.463,777.01,-20.76
5.745,-0.0669,0.5605,-0.0605,1.1204,-69.7479,1.7507,34.8,91090.0,,,,,,,
5.75,,,,,,,,,150.017,-8.737,-0.304,-4.831,-0.463,778.01,-20.76
5.755,-0.0249,0.5522,-0.0312,3.9916,-69.6779,1.8908,34.8,91007.0,,,,,,,
5.76,,,,,,,,,150.037,-8.766,-0.309,-4.778,-0.464,780.36,-20.732
5.765,-0.0312,0.5605,0.0376,1.6106,-68.1373,1.8207,34.8,91009.0,,,,,,,
5.77,,,,,,,,,150.055,-8.794,-0.315,-4.725,-0.463,781.27,-20.732
5.775,-0.0161,0.5688,0.0186,0.2801,-74.2997,2.0308,34.8,90981.0,,,,,,,
5.78,,,,,,,,,150.075,-8.822,-0.32,-4.674,-0.464,784.44,-20.675
5.785,-0.0449,0.5562,-0.0562,0.8403,-72.6891,1.8908,34.8,90946.0,,,,,,,
5.79,,,,,,,,,150.101,-8.852,-0.324,-4.617,-0.465,788.07,-20.675
5.795,-0.0664,0.5645,-0.0249,2.8711,-73.3193,1.7507,34.8,90942.0,,,,,,,
5.8,,,,,,,,,150.121,-8.88,-0.329,-4.561,-0.466,788.62,-20.675
5.805,-0.0029,0.5483,-0.0181,-0.5602,-70.3081,1.6807,34.7,90927.0,,,,,,,
5.81,,,,,,,,,150.155,-8.909,-0.335,-4.505,-0.465,795.42,-20.675
5.815,-0.0435,0.5586,-0.0186,0.2801,-71.4986,1.8207,34.8,90868.0,,,,,,,
5.82,,,,,,,,,150.184,-8.936,-0.338,-4.451,-0.467,795.61,-20.628
5.825,-0.0444,0.54,-0.0464,-2.381,-67.7871,1.6106,34.8,90840.0,,,,,,,
5.83,,,,,,,,,150.214,-8.963,-0.342,-4.395,-0.468,797.97,-20.628
5.835,-0.0195,0.5596,0.0039,1.3305,-67.8571,1.4006,34.8,90830.0,,,,,,,
5.84,,,,,,,,,150.246,-8.988,-0.343,-4.342,-0.469,801.15,-20.591
5.845,-0.0688,0.5444,-0.0371,-0.07,-66.5266,1.4706,34.8,90827.0,,,,,,,
5.85,,,,,,,,,150.274,-9.013,-0.348,-4.29,-0.47,801.51,-20.591
5.855,-0.0327,0.5459,-0.0107,-1.1204,-65.7563,1.1905,34.8,90729.0,,,,,,,
5.86,,,,,,,,,150.299,-9.038,-0.351,-4.238,-0.471,802.87,-20.591
5.865,-0.019,0.5596,0.0073,0.2101,-68.8375,1.1905,34.8,90731.0,,,,,,,
5.87,,,,,,,,,150.334,-9.062,-0.353,-4.186,-0.472,808.23,-20.544
5.875,-0.0278,0.5488,-0.0615,1.4706,-64.4258,0.9104,34.8,90717.0,,,,,,,
5.88,,,,,,,,,150.37,-9.086,-0.357,-4.132,-0.472,810.78,-20.544
5.885,-0.063,0.54,0.0259,2.8011,-66.0364,0.9804,34.7,90695.0,,,,,,,
5.89,,,,,,,,,150.404,-9.109,-0.361,-4.082,-0.472,811.69,-20.402
5.895,0.0142,0.5439,-0.0547,3.6415,-66.5266,0.7703,34.7,90655.0,,,,,,,
5.9,,,,,,,,,150.433,-9.132,-0.366,-4.03,-0.471,811.96,-20.393
5.905,-0.0581,0.5342,-0.0386,5.1821,-68.8375,0.9104,34.7,90632.0,,,,,,,
5.91,,,,,,,,,150.481,-9.155,-0.372,-3.977,-0.47,820.7,-20.346
5.915,-0.0381,0.5479,0.0327,2.521,-69.6078,0.7703,34.7,90644.0,,,,,,,
5.92,,,,,,,,,150.524,-9.178,-0.379,-3.923,-0.469,820.88,-20.317
5.925,0.0049,0.541,-0.062,4.2717,-70.7983,0.7003,34.8,90574.0,,,,,,,
5.93,,,,,,,,,150.563,-9.201,-0.384,-3.868,-0.468,821.97,-20.346
5.935,-0.0806,0.5444,-0.0229,1.4006,-68.9076,0.7703,34.8,90569.0,,,,,,,
5.94,,,,,,,,,150.602,-9.224,-0.391,-3.812,-0.466,823.97,-20.317
5.945,0.0044,0.5337,0.0298,-3.7815,-63.9356,0.3501,34.7,90523.0,,,,,,,
5.95,,,,,,,,,150.645,-9.247,-0.395,-3.757,-0.466,827.62,-20.317
5.955,-0.0386,0.5259,-0.0664,1.7507,-68.5574,0.4902,34.7,90551.0,,,,,,,
5.96,,,,,,,,,150.684,-9.267,-0.394,-3.705,-0.467,828.62,-20.308
5.965,-0.0117,0.5381,0.0347,5.7423,-70.6583,0.7703,34.7,90496.0,,,,,,,
5.97,,,,,,,,,150.722,-9.289,-0.399,-3.651,-0.466,829.71,-20.251
5.975,-0.0391,0.5396,-0.0103,4.5518,-69.6078,0.8403,34.7,90467.0,,,,,,,
5.98,,,,,,,,,150.768,-9.311,-0.406,-3.594,-0.464,835.0,-20.233
5.985,-0.0601,0.5356,-0.0288,1.8908,-68.2773,0.6303,34.7,90435.0,,,,,,,
5.99,,,,,,,,,150.809,-9.332,-0.413,-3.538,-0.462,835.45,-20.223
5.995,-0.0249,0.5205,0.0244,4.4818,-66.9468,0.9104,34.8,90443.0,,,,,,,
6.0,,,,,,,,,150.849,-9.352,-0.417,-3.483,-0.462,837.09,-20.195
6.005,-0.0503,0.521,-0.0166,3.7115,-67.1569,0.7003,34.7,90395.0,,,,,,,
6.01,,,,,,,,,150.891,-9.372,-0.424,-3.429,-0.46,839.65,-20.195
6.015,-0.042,0.5308,-0.0186,-3.6415,-68.7675,0.7703,34.8,90398.0,,,,,,,
6.02,,,,,,,,,150.933,-9.392,-0.43,-3.375,-0.459,842.11,-20.148
6.025,0.0005,0.5464,0.0254,1.3305,-67.9972,0.7703,34.7,90371.0,,,,,,,
6.03,,,,,,,,,150.977,-9.412,-0.429,-3.319,-0.46,844.76,-20.11
6.035,-0.0869,0.5229,-0.0352,2.2409,-68.1373,0.7003,34.7,90335.0,,,,,,,
6.04,,,,,,,,,151.021,-9.431,-0.433,-3.263,-0.459,846.95,-20.11
6.045,-0.0088,0.5151,0.0122,3.1513,-69.5378,0.4902,34.7,90291.0,,,,,,,
6.05,,,,,,,,,151.062,-9.45,-0.438,-3.208,-0.458,847.68,-20.053
6.055,-0.0454,0.5298,0.0005,2.8711,-66.4566,0.6303,34.7,90280.0,,,,,,,
6.06,,,,,,,,,151.106,-9.468,-0.443,-3.151,-0.457,851.05,-20.053
6.065,-0.0581,0.5278,-0.0283,2.6611,-66.9468,0.5602,34.7,90240.0,,,,,,,
6.07,,,,,,,,,151.144,-9.486,-0.448,-3.097,-0.456,851.33,-20.035
6.075,-0.0459,0.5303,-0.0112,3.7115,-68.8375,0.5602,34.7,90239.0,,,,,,,
6.08,,,,,,,,,151.183,-9.504,-0.453,-3.042,-0.454,853.52,-19.997
6.085,-0.0156,0.5269,0.0293,-2.1008,-64.986,0.4202,34.7,90210.0,,,,,,,
6.09,,,,,,,,,151.226,-9.521,-0.459,-2.985,-0.453,856.81,-19.997
6.095,-0.0698,0.5249,-0.0659,1.4006,-66.1765,0.4902,34.7,90156.0,,,,,,,
6.1,,,,,,,,,151.273,-9.538,-0.46,-2.932,-0.453,860.83,-19.997
6.105,-0.0303,0.5112,0.0117,0.7003,-65.6162,0.4902,34.7,90148.0,,,,,,,
6.11,,,,,,,,,151.317,-9.555,-0.463,-2.877,-0.452,861.83,-19.997
6.115,-0.0459,0.5137,-0.0059,4.3417,-64.2857,0.7003,34.7,90115.0,,,,,,,
6.12,,,,,,,,,151.366,-9.571,-0.466,-2.823,-0.451,865.49,-19.978
6.125,-0.0352,0.5039,-0.0327,2.521,-66.0364,0.5602,34.7,90117.0,,,,,,,
6.13,,,,,,,,,151.408,-9.586,-0.472,-2.77,-0.45,865.58,-19.94
6.135,-0.0356,0.5161,-0.0459,3.5714,-68.5574,0.5602,34.7,90088.0,,,,,,,
6.14,,,,,,,,,151.453,-9.601,-0.477,-2.715,-0.449,868.23,-19.94
6.145,-0.043,0.4985,0.001,1.7507,-62.395,0.4202,34.7,90035.0,,,,,,,
6.15,,,,,,,,,151.505,-9.617,-0.482,-2.659,-0.447,873.17,-19.94
6.155,-0.041,0.5176,-0.0376,1.1204,-63.9356,0.2801,34.7,90028.0,,,,,,,
6.16,,,,,,,,,151.554,-9.631,-0.486,-2.607,-0.446,873.9,-19.771
6.165,-0.0322,0.5059,-0.0181,4.902,-64.2157,0.7703,34.7,90012.0,,,,,,,
6.17,,,,,,,,,151.605,-9.645,-0.489,-2.554,-0.445,876.74,-19.771
6.175,-0.0767,0.5044,-0.0288,5.9524,-64.1457,0.7003,34.7,89965.0,,,,,,,
6.18,,,,,,,,,151.651,-9.659,-0.496,-2.5,-0.444,876.92,-19.724
6.185,-0.0405,0.5034,-0.0425,5.2521,-66.1765,0.7703,34.7,89945.0,,,,,,,
6.19,,,,,,,,,151.698,-9.672,-0.503,-2.447,-0.442,879.39,-19.677
6.195,0.0283,0.5225,-0.0078,4.4118,-69.7479,0.7003,34.7,89943.0,,,,,,,
6.2,,,,,,,,,151.754,-9.686,-0.51,-2.392,-0.44,884.25,-19.573
6.205,-0.0762,0.4951,-0.0146,5.8824,-73.3193,0.8403,34.7,89909.0,,,,,,,
6.21,,,,,,,,,151.805,-9.7,-0.516,-2.334,-0.438,884.89,-19.573
6.215,-0.0068,0.5127,-0.0605,1.8908,-74.5798,0.7003,34.7,89880.0,,,,,,,
6.22,,,,,,,,,151.855,-9.714,-0.524,-2.272,-0.436,886.35,-19.545
6.225,-0.0347,0.5,-0.0195,3.0112,-74.93,0.9804,34.7,89870.0,,,,,,,
6.23,,,,,,,,,151.91,-9.728,-0.528,-2.209,-0.435,890.66,-19.573
6.235,-0.0396,0.5054,0.001,2.0308,-78.1513,0.9804,34.7,89831.0,,,,,,,
6.24,,,,,,,,,151.965,-9.742,-0.533,-2.146,-0.433,892.49,-19.545
6.245,-0.0264,0.5127,-0.0557,4.972,-78.3613,0.9104,34.7,89792.0,,,,,,,
6.25,,,,,,,,,152.013,-9.756,-0.538,-2.081,-0.432,892.68,-19.563
6.255,-0.0547,0.501,0.0171,1.8908,-76.6106,0.9104,34.7,89799.0,,,,,,,
6.26,,,,,,,,,152.064,-9.77,-0.545,-2.015,-0.43,895.79,-19.563
6.265,0.0112,0.498,-0.042,0.0,-75.8403,0.9104,34.7,89754.0,,,,,,,
6.27,,,,,,,,,152.117,-9.783,-0.549,-1.95,-0.428,898.45,-19.545
6.275,-0.0698,0.5005,-0.0146,5.9524,-78.7115,1.1905,34.7,89742.0,,,,,,,
6.28,,,,,,,,,152.166,-9.795,-0.552,-1.885,-0.427,899.37,-19.526
6.285,-0.0098,0.4971,-0.0225,3.9216,-76.0504,0.9104,34.7,89718.0,,,,,,,
6.29,,,,,,,,,152.219,-9.807,-0.559,-1.819,-0.425,902.95,-19.479
6.295,-0.0347,0.498,-0.0044,6.7927,-76.8207,0.7003,34.7,89683.0,,,,,,,
6.3,,,,,,,,,152.275,-9.819,-0.565,-1.754,-0.423,905.89,-19.469
6.305,-0.0415,0.5098,0.02,3.9216,-75.1401,0.8403,34.7,89680.0,,,,,,,
6.31,,,,,,,,,152.326,-9.83,-0.574,-1.689,-0.42,906.53,-19.469
6.315,-0.0151,0.4922,-0.0083,0.9804,-75.0,0.5602,34.7,89625.0,,,,,,,
6.32,,,,,,,,,152.38,-9.84,-0.579,-1.626,-0.418,910.02,-19.469
6.325,-0.0552,0.4873,-0.0234,1.3305,-77.1008,0.7703,34.7,89640.0,,,,,,,
6.33,,,,,,,,,152.432,-9.851,-0.583,-1.562,-0.417,911.12,-19.469
6.335,-0.041,0.4829,-0.0112,-1.1204,-76.7507,0.8403,34.7,89610.0,,,,,,,
6.34,,,,,,,,,152.484,-9.861,-0.586,-1.496,-0.415,913.32,-19.422
6.345,-0.0083,0.4868,0.0112,1.2605,-78.3613,0.7703,34.7,89565.0,,,,,,,
6.35,,,,,,,,,152.539,-9.87,-0.588,-1.43,-0.413,916.54,-19.422
6.355,-0.0322,0.5015,-0.0264,0.4902,-78.8515,0.9104,34.7,89544.0,,,,,,,
6.36,,,,,,,,,152.588,-9.88,-0.591,-1.363,-0.412,916.81,-19.403
6.365,-0.0674,0.4795,0.0151,1.2605,-77.2409,0.6303,34.7,89518.0,,,,,,,
6.37,,,,,,,,,152.642,-9.889,-0.594,-1.296,-0.41,920.49,-19.403
6.375,-0.0112,0.498,-0.0239,4.1317,-76.0504,0.4902,34.7,89498.0,,,,,,,
6.38,,,,,,,,,152.694,-9.897,-0.597,-1.23,-0.408,921.87,-19.309
6.385,-0.0718,0.4932,0.0068,3.1513,-76.0504,0.5602,34.7,89457.0,,,,,,,
6.39,,,,,,,,,152.744,-9.905,-0.603,-1.165,-0.406,923.25,-19.309
6.395,-0.0254,0.4932,0.0176,2.451,-73.2493,0.3501,34.7,89475.0,,,,,,,
6.4,,,,,,,,,152.8,-9.912,-0.608,-1.1,-0.403,927.39,-19.309
6.405,-0.0225,0.48,-0.0635,6.2325,-75.4202,0.4202,34.7,89404.0,,,,,,,
6.41,,,,,,,,,152.854,-9.919,-0.612,-1.037,-0.401,929.32,-19.309
6.415,-0.0225,0.4834,0.0645,5.042,-72.3389,0.4902,34.7,89404.0,,,,,,,
6.42,,,,,,,,,152.91,-9.925,-0.62,-0.972,-0.399,931.71,-19.215
6.425,-0.0723,0.4814,-0.0771,4.2717,-75.4902,0.5602,34.7,89382.0,,,,,,,
6.43,,,,,,,,,152.965,-9.93,-0.626,-0.91,-0.396,933.55,-19.205
6.435,0.0059,0.4839,0.002,1.3305,-74.3697,0.3501,34.7,89359.0,,,,,,,
6.44,,,,,,,,,153.02,-9.936,-0.632,-0.846,-0.394,935.67,-19.205
6.445,-0.0459,0.4878,0.0015,-0.07,-75.0,0.3501,34.7,89331.0,,,,,,,
6.45,,,,,,,,,153.074,-9.941,-0.635,-0.782,-0.392,937.33,-19.149
6.455,-0.0186,0.4717,0.0117,0.2801,-72.409,0.07,34.7,89320.0,,,,,,,
6.46,,,,,,,,,153.135,-9.946,-0.637,-0.717,-0.389,942.21,-19.149
6.465,-0.0342,0.4854,-0.0122,3.4314,-70.098,0.2101,34.7,89298.0,,,,,,,
6.47,,,,,,,,,153.19,-9.95,-0.639,-0.655,-0.387,942.21,-19.149
6.475,-0.0454,0.4731,-0.0371,0.4202,-69.6779,0.1401,34.7,89259.0,,,,,,,
6.48,,,,,,,,,153.245,-9.953,-0.644,-0.595,-0.385,944.23,-19.149
6.485,-0.0664,0.4697,-0.0059,4.6218,-69.888,0.4902,34.7,89243.0,,,,,,,
6.49,,,,,,,,,153.299,-9.957,-0.646,-0.535,-0.383,946.35,-19.139
6.495,-0.0293,0.4717,-0.0151,1.6807,-68.0672,0.5602,34.7,89207.0,,,,,,,
6.5,,,,,,,,,153.354,-9.96,-0.652,-0.475,-0.38,948.93,-19.102
6.505,-0.0557,0.4683,-0.0435,0.7703,-68.3473,0.7003,34.7,89231.0,,,,,,,
6.51,,,,,,,,,153.407,-9.962,-0.655,-0.416,-0.379,949.95,-19.102
6.515,-0.0737,0.4854,-0.0024,1.8207,-67.0868,0.8403,34.7,89199.0,,,,,,,
6.52,,,,,,,,,153.46,-9.964,-0.657,-0.357,-0.377,951.97,-18.941
6.525,0.0161,0.4751,-0.0322,0.9104,-64.6359,0.6303,34.7,89145.0,,,,,,,
6.53,,,,,,,,,153.517,-9.966,-0.66,-0.3,-0.375,955.57,-18.941
6.535,-0.083,0.4727,-0.0166,-0.9804,-65.8964,0.9104,34.7,89142.0,,,,,,,
6.54,,,,,,,,,153.572,-9.967,-0.663,-0.244,-0.374,957.05,-18.941
6.545,-0.0112,0.4658,-0.0171,4.6919,-66.3866,0.9104,34.7,89122.0,,,,,,,
6.55,,,,,,,,,153.624,-9.969,-0.663,-0.187,-0.372,958.15,-18.932
6.555,-0.0303,0.4658,-0.0371,2.451,-66.4566,0.8403,34.7,89061.0,,,,,,,
6.56,,,,,,,,,153.677,-9.969,-0.669,-0.13,-0.371,960.37,-18.932
6.565,-0.0669,0.4673,0.0,1.6106,-68.1373,0.8403,34.7,89065.0,,,,,,,
6.57,,,,,,,,,153.725,-9.97,-0.672,-0.073,-0.369,961.11,-18.913
6.575,-0.0166,0.4746,-0.001,0.7703,-65.8964,0.7703,34.7,89035.0,,,,,,,
6.58,,,,,,,,,153.781,-9.97,-0.675,-0.014,-0.367,966.09,-18.876
6.585,-0.0503,0.4585,-0.0527,0.2101,-65.8964,0.8403,34.7,89003.0,,,,,,,
6.59,,,,,,,,,153.832,-9.97,-0.677,0.042,-0.366,966.37,-18.913
6.595,-0.0127,0.4556,-0.0098,1.6807,-65.1261,0.9804,34.7,89007.0,,,,,,,
6.6,,,,,,,,,153.882,-9.969,-0.679,0.099,-0.364,968.22,-18.847
6.605,-0.0571,0.4551,0.0063,1.4706,-67.0868,1.2605,34.7,88954.0,,,,,,,
6.61,,,,,,,,,153.941,-9.968,-0.682,0.155,-0.363,973.48,-18.828
6.615,-0.04,0.4785,-0.0254,2.3109,-64.0756,1.1204,34.7,88946.0,,,,,,,
6.62,,,,,,,,,153.995,-9.967,-0.684,0.213,-0.362,973.85,-18.8
6.625,-0.0371,0.4634,-0.0386,0.2101,-65.056,1.3305,34.7,88938.0,,,,,,,
6.63,,,,,,,,,154.049,-9.966,-0.688,0.268,-0.36,976.25,-18.8
6.635,-0.0522,0.4634,-0.0264,3.0112,-64.6359,1.3305,34.7,88897.0,,,,,,,
6.64,,,,,,,,,154.105,-9.964,-0.689,0.324,-0.359,978.84,-18.8
6.645,-0.0142,0.4619,0.0,0.9104,-64.1457,1.2605,34.7,88887.0,,,,,,,
6.65,,,,,,,,,154.156,-9.962,-0.693,0.379,-0.358,979.21,-18.753
6.655,-0.041,0.4492,-0.0132,0.3501,-66.4566,1.4706,34.7,88853.0,,,,,,,
6.66,,,,,,,,,154.214,-9.959,-0.695,0.435,-0.357,983.74,-18.753
6.665,-0.0391,0.4663,-0.0103,0.9804,-68.1373,1.4006,34.7,88830.0,,,,,,,
6.67,,,,,,,,,154.267,-9.957,-0.696,0.492,-0.356,984.48,-18.725
6.675,-0.0161,0.459,-0.0068,1.9608,-69.4678,1.4706,34.7,88798.0,,,,,,,
6.68,,,,,,,,,154.316,-9.953,-0.699,0.551,-0.354,985.22,-18.725
6.685,-0.0171,0.4517,-0.0225,0.7703,-68.8375,1.1905,34.7,88775.0,,,,,,,
6.69,,,,,,,,,154.37,-9.95,-0.702,0.61,-0.353,989.02,-18.725
6.695,-0.0469,0.46,-0.0234,1.9608,-66.9468,1.3305,34.7,88730.0,,,,,,,
6.7,,,,,,,,,154.421,-9.946,-0.703,0.67,-0.351,989.94,-18.725
6.705,0.0186,0.4512,-0.0005,2.6611,-67.6471,1.0504,34.7,88799.0,,,,,,,
6.71,,,,,,,,,154.474,-9.942,-0.706,0.727,-0.35,993.09,-18.725
6.715,-0.0308,0.4512,-0.0239,3.6415,-67.7171,1.1204,34.7,88737.0,,,,,,,
6.72,,,,,,,,,154.527,-9.937,-0.71,0.785,-0.348,995.22,-18.687
6.725,-0.0278,0.4565,-0.0269,3.2913,-67.2969,0.9104,34.7,88717.0,,,,,,,
6.73,,,,,,,,,154.582,-9.932,-0.714,0.843,-0.347,998.09,-18.668
6.735,-0.0142,0.4404,-0.0278,1.9608,-69.888,0.9104,34.7,88662.0,,,,,,,
6.74,,,,,,,,,154.631,-9.927,-0.718,0.901,-0.345,998.18,-18.621
6.745,-0.0181,0.4492,0.0244,4.4818,-68.9776,0.7703,34.7,88666.0,,,,,,,
6.75,,,,,,,,,154.682,-9.921,-0.721,0.961,-0.343,1000.31,-18.527
6.755,-0.0645,0.4639,-0.0259,3.0112,-70.5182,0.7003,34.7,88630.0,,,,,,,
6.76,,,,,,,,,154.736,-9.915,-0.726,1.02,-0.342,1003.83,-18.527
6.765,-0.0171,0.438,-0.0308,2.7311,-68.7675,0.7003,34.7,88618.0,,,,,,,
6.77,,,,,,,,,154.786,-9.908,-0.73,1.081,-0.34,1004.48,-18.527
6.775,-0.0063,0.4424,-0.0098,5.4622,-68.0672,0.5602,34.7,88602.0,,,,,,,
6.78,,,,,,,,,154.833,-9.901,-0.733,1.139,-0.338,1005.69,-18.517
6.785,-0.0288,0.4336,-0.0269,0.9804,-68.4174,0.4902,34.7,88569.0,,,,,,,
6.79,,,,,,,,,154.887,-9.894,-0.739,1.198,-0.336,1010.41,-18.517
6.795,-0.0654,0.4507,-0.0073,4.5518,-71.1485,0.4202,34.7,88562.0,,,,,,,
6.8,,,,,,,,,154.936,-9.887,-0.741,1.256,-0.333,1010.79,-18.48
6.805,-0.0234,0.4414,-0.0229,3.4314,-69.958,0.4202,34.7,88516.0,,,,,,,
6.81,,,,,,,,,154.987,-9.879,-0.746,1.317,-0.331,1013.75,-18.48
6.815,-0.0122,0.4365,-0.002,3.0112,-72.8992,0.4202,34.7,88516.0,,,,,,,
6.82,,,,,,,,,155.037,-9.87,-0.75,1.376,-0.329,1014.87,-18.348
6.825,-0.0327,0.4473,-0.0078,4.6218,-72.479,0.2101,34.7,88507.0,,,,,,,
6.83,,,,,,,,,155.085,-9.861,-0.754,1.439,-0.326,1016.35,-18.329
6.835,-0.0269,0.4424,-0.0161,2.3109,-70.4482,0.2801,34.7,88465.0,,,,,,,
6.84,,,,,,,,,155.135,-9.852,-0.759,1.5,-0.324,1019.41,-18.348
6.845,-0.0151,0.4409,0.0225,2.451,-71.6387,0.2801,34.7,88418.0,,,,,,,
6.85,,,,,,,,,155.181,-9.842,-0.762,1.56,-0.321,1020.06,-18.348
6.855,-0.0742,0.4385,-0.0649,-0.07,-69.0476,0.2101,34.7,88409.0,,,,,,,
6.86,,,,,,,,,155.233,-9.832,-0.765,1.621,-0.318,1024.33,-18.329
6.865,-0.0015,0.4429,0.0269,1.4006,-69.8179,0.0,34.7,88389.0,,,,,,,
6.87,,,,,,,,,155.278,-9.822,-0.766,1.68,-0.315,1024.33,-18.329
6.875,-0.0474,0.4302,-0.0464,3.5014,-70.7983,0.0,34.7,88371.0,,,,,,,
6.88,,,,,,,,,155.32,-9.812,-0.768,1.739,-0.312,1025.17,-18.329
6.885,-0.043,0.4399,0.0142,2.6611,-70.028,0.0,34.7,88333.0,,,,,,,
6.89,,,,,,,,,155.367,-9.801,-0.772,1.799,-0.31,1029.07,-18.329
6.895,-0.0366,0.437,0.0205,3.9916,-71.7087,0.3501,34.7,88351.0,,,,,,,
6.9,,,,,,,,,155.42,-9.79,-0.775,1.858,-0.307,1033.44,-18.32
6.905,-0.021,0.439,-0.0376,3.3613,-72.409,0.4202,34.7,88320.0,,,,,,,
6.91,,,,,,,,,155.469,-9.778,-0.779,1.919,-0.304,1034.28,-18.301
6.915,-0.0581,0.4302,-0.0034,2.9412,-72.8992,0.6303,34.7,88281.0,,,,,,,
6.92,,,,,,,,,155.517,-9.765,-0.783,1.98,-0.302,1036.13,-18.301
6.925,-0.0562,0.4395,0.0068,4.2717,-72.8291,0.5602,34.7,88268.0,,,,,,,
6.93,,,,,,,,,155.564,-9.753,-0.786,2.042,-0.299,1037.81,-18.282
6.935,-0.0347,0.4385,-0.0146,2.1709,-71.2185,0.6303,34.7,88233.0,,,,,,,
6.94,,,,,,,,,155.61,-9.739,-0.791,2.103,-0.297,1039.67,-18.282
6.945,-0.0493,0.437,-0.0068,2.381,-71.7087,0.7703,34.7,88223.0,,,,,,,
6.95,,,,,,,,,155.655,-9.726,-0.793,2.163,-0.294,1041.34,-18.272
6.955,-0.0332,0.4287,-0.0269,4.0616,-69.5378,0.7703,34.7,88186.0,,,,,,,
6.96,,,,,,,,,155.697,-9.712,-0.796,2.223,-0.292,1042.55,-18.272
6.965,-0.0415,0.4375,-0.0161,4.6218,-71.8487,0.9804,34.7,88162.0,,,,,,,
6.97,,,,,,,,,155.743,-9.698,-0.8,2.281,-0.29,1046.18,-18.244
6.975,-0.0488,0.4307,0.0215,3.2213,-70.7283,1.1204,34.7,88142.0,,,,,,,
6.98,,,,,,,,,155.787,-9.684,-0.805,2.342,-0.288,1047.39,-18.254
6.985,-0.02,0.4351,-0.0146,2.8711,-71.2885,1.2605,34.7,88133.0,,,,,,,
6.99,,,,,,,,,155.834,-9.669,-0.808,2.401,-0.286,1050.65,-18.244
6.995,-0.0225,0.4141,0.0029,3.3613,-69.6078,1.2605,34.7,88133.0,,,,,,,
7.0,,,,,,,,,155.877,-9.654,-0.811,2.46,-0.284,1051.58,-18.244
7.005,-0.0576,0.4307,0.0308,2.2409,-71.7087,1.1204,34.7,88057.0,,,,,,,
7.01,,,,,,,,,155.924,-9.639,-0.814,2.518,-0.282,1055.03,-18.206
7.015,-0.0171,0.4238,-0.0215,3.1513,-71.4986,1.1905,34.7,88056.0,,,,,,,
7.02,,,,,,,,,155.971,-9.623,-0.816,2.578,-0.28,1057.26,-18.206
7.025,-0.0537,0.4268,0.0044,5.7423,-71.7787,1.4006,34.7,88046.0,,,,,,,
7.03,,,,,,,,,156.018,-9.606,-0.819,2.638,-0.278,1059.13,-18.122
7.035,-0.0513,0.4248,-0.0137,5.6723,-69.6078,1.4706,34.7,88012.0,,,,,,,
7.04,,,,,,,,,156.061,-9.589,-0.824,2.697,-0.276,1059.97,-18.122
7.045,-0.0083,0.4248,0.0015,3.8515,-67.577,1.1204,34.7,88021.0,,,,,,,
7.05,,,,,,,,,156.098,-9.573,-0.829,2.755,-0.275,1059.97,-18.084
7.055,-0.0503,0.4185,-0.0459,0.2101,-65.6162,1.1204,34.7,87989.0,,,,,,,
7.06,,,,,,,,,156.15,-9.556,-0.833,2.811,-0.274,1067.05,-18.046
7.065,-0.0542,0.415,0.0024,2.6611,-63.5154,1.0504,34.7,87946.0,,,,,,,
7.07,,,,,,,,,156.196,-9.54,-0.833,2.865,-0.271,1067.14,-18.009
7.075,0.0288,0.4146,-0.041,6.2325,-64.986,1.0504,34.7,87948.0,,,,,,,
7.08,,,,,,,,,156.239,-9.524,-0.835,2.917,-0.27,1068.08,-18.009
7.085,-0.04,0.4189,-0.0176,6.6527,-66.5966,0.9104,34.7,87929.0,,,,,,,
7.09,,,,,,,,,156.282,-9.507,-0.841,2.971,-0.269,1070.41,-17.99
7.095,-0.0503,0.416,-0.0171,2.3109,-66.8768,0.6303,34.7,87904.0,,,,,,,
7.1,,,,,,,,,156.321,-9.489,-0.846,3.025,-0.267,1071.25,-17.99
7.105,0.0386,0.4126,-0.0498,3.6415,-65.8263,0.4902,34.7,87859.0,,,,,,,
7.11,,,,,,,,,156.362,-9.471,-0.849,3.08,-0.265,1073.39,-17.895
7.115,-0.0498,0.417,-0.0137,2.7311,-68.0672,0.5602,34.7,87864.0,,,,,,,
7.12,,,,,,,,,156.407,-9.454,-0.852,3.134,-0.263,1077.22,-17.886
7.125,-0.0464,0.417,-0.0122,2.9412,-69.0476,0.5602,34.7,87821.0,,,,,,,
7.13,,,,,,,,,156.447,-9.435,-0.854,3.189,-0.26,1077.41,-17.858
7.135,-0.043,0.4097,-0.0142,3.8515,-67.6471,0.2801,34.7,87788.0,,,,,,,
7.14,,,,,,,,,156.485,-9.415,-0.857,3.246,-0.258,1078.99,-17.858
7.145,-0.0522,0.4023,-0.042,2.7311,-68.2073,0.2801,34.7,87765.0,,,,,,,
7.15,,,,,,,,,156.524,-9.396,-0.86,3.301,-0.255,1081.33,-17.839
7.155,0.0,0.4136,-0.0029,3.3613,-68.9776,0.07,34.6,87776.0,,,,,,,
7.16,,,,,,,,,156.567,-9.376,-0.863,3.356,-0.252,1085.06,-17.82
7.165,-0.0342,0.4038,-0.0073,2.8011,-69.3277,0.2101,34.7,87752.0,,,,,,,
7.17,,,,,,,,,156.606,-9.356,-0.866,3.412,-0.249,1085.53,-17.811
7.175,-0.041,0.4146,0.0161,0.5602,-71.3585,0.1401,34.7,87718.0,,,,,,,
7.18,,,,,,,,,156.648,-9.335,-0.869,3.468,-0.247,1089.08,-17.792
7.185,0.001,0.4087,-0.082,0.4202,-72.2689,0.2801,34.7,87724.0,,,,,,,
7.19,,,,,,,,,156.694,-9.314,-0.869,3.525,-0.243,1092.17,-17.792
7.195,-0.0459,0.4058,0.0532,1.8207,-72.9692,0.2101,34.7,87702.0,,,,,,,
7.2,,,,,,,,,156.736,-9.291,-0.87,3.584,-0.239,1093.29,-17.773
7.205,-0.0166,0.4082,-0.0483,1.1905,-72.3389,0.2101,34.7,87683.0,,,,,,,
7.21,,,,,,,,,156.776,-9.269,-0.872,3.642,-0.235,1094.32,-17.716
7.215,-0.0415,0.4067,-0.0396,3.9916,-70.7283,0.2801,34.7,87637.0,,,,,,,
7.22,,,,,,,,,156.814,-9.246,-0.873,3.7,-0.232,1095.53,-17.698
7.225,-0.0366,0.4092,0.0127,0.5602,-71.2185,0.1401,34.7,87640.0,,,,,,,
7.23,,,,,,,,,156.852,-9.222,-0.876,3.757,-0.229,1098.15,-17.688
7.235,-0.0317,0.3965,-0.0259,4.0616,-70.9384,0.2801,34.7,87607.0,,,,,,,
7.24,,,,,,,,,156.887,-9.199,-0.877,3.813,-0.225,1098.71,-17.688
7.245,-0.0371,0.4043,0.0234,2.8011,-72.3389,0.2801,34.7,87581.0,,,,,,,
7.25,,,,,,,,,156.919,-9.175,-0.88,3.87,-0.222,1100.21,-17.688
7.255,-0.0493,0.4043,-0.0322,1.1204,-71.2185,0.3501,34.7,87559.0,,,,,,,
7.26,,,,,,,,,156.951,-9.151,-0.882,3.927,-0.219,1101.99,-17.66
7.265,-0.0273,0.3975,0.0044,0.07,-70.8683,0.2801,34.7,87542.0,,,,,,,
7.27,,,,,,,,,156.988,-9.126,-0.883,3.983,-0.216,1106.01,-17.66
7.275,-0.0474,0.4082,0.0049,0.5602,-69.4678,0.4202,34.6,87517.0,,,,,,,
7.28,,,,,,,,,157.02,-9.102,-0.883,4.039,-0.211,1106.29,-17.641
7.285,-0.0664,0.4014,-0.0293,-0.5602,-70.028,0.6303,34.6,87530.0,,,,,,,
7.29,,,,,,,,,157.054,-9.078,-0.883,4.094,-0.208,1109.1,-17.641
7.295,0.0044,0.3945,0.0513,1.8908,-68.6275,0.4202,34.6,87486.0,,,,,,,
7.3,,,,,,,,,157.089,-9.053,-0.883,4.149,-0.204,1111.54,-17.613
7.305,-0.0742,0.4028,-0.0371,2.8011,-68.9776,0.7003,34.6,87438.0,,,,,,,
7.31,,,,,,,,,157.123,-9.028,-0.884,4.202,-0.201,1113.6,-17.613
7.315,-0.0293,0.4009,0.0083,2.451,-67.3669,0.7703,34.7,87432.0,,,,,,,
7.32,,,,,,,,,157.156,-9.003,-0.886,4.256,-0.198,1115.19,-17.584
7.325,0.0239,0.3892,0.0342,3.3613,-69.2577,0.6303,34.6,87451.0,,,,,,,
7.33,,,,,,,,,157.187,-8.977,-0.887,4.309,-0.196,1116.31,-17.556
7.335,-0.0967,0.4009,-0.0347,3.2913,-69.958,0.9104,34.6,87409.0,,,,,,,
7.34,,,,,,,,,157.215,-8.951,-0.89,4.362,-0.193,1117.53,-17.556
7.345,-0.022,0.3818,0.0015,1.1204,-69.6779,0.7703,34.6,87387.0,,,,,,,
7.35,,,,,,,,,157.246,-8.925,-0.892,4.416,-0.191,1120.44,-17.547
7.355,-0.0171,0.3999,0.0029,4.4818,-69.3978,0.8403,34.6,87359.0,,,,,,,
7.36,,,,,,,,,157.279,-8.898,-0.892,4.47,-0.188,1123.72,-17.547
7.365,-0.0684,0.3872,-0.019,2.7311,-67.7871,0.7703,34.6,87340.0,,,,,,,
7.37,,,,,,,,,157.31,-8.871,-0.895,4.524,-0.186,1124.94,-17.547
7.375,-0.002,0.3911,0.0073,2.2409,-68.9076,0.7703,34.6,87311.0,,,,,,,
7.38,,,,,,,,,157.337,-8.844,-0.897,4.576,-0.183,1125.5,-17.528
7.385,-0.0444,0.3989,-0.0059,0.7003,-66.8067,0.7703,34.6,87280.0,,,,,,,
7.39,,,,,,,,,157.365,-8.816,-0.898,4.628,-0.18,1127.66,-17.424
7.395,-0.0332,0.3911,-0.0146,3.8515,-65.7563,0.7703,34.6,87283.0,,,,,,,
7.4,,,,,,,,,157.392,-8.789,-0.898,4.679,-0.177,1129.72,-17.509
7.405,-0.0391,0.3892,0.0146,3.7115,-66.9468,0.8403,34.6,87267.0,,,,,,,
7.41,,,,,,,,,157.422,-8.762,-0.9,4.729,-0.175,1132.35,-17.358
7.415,-0.0039,0.3848,-0.0151,2.7311,-68.0672,0.7703,34.6,87240.0,,,,,,,
7.42,,,,,,,,,157.451,-8.735,-0.902,4.78,-0.173,1134.14,-17.358
7.425,-0.0591,0.3901,-0.0317,3.9916,-69.4678,0.8403,34.7,87237.0,,,,,,,
7.43,,,,,,,,,157.481,-8.706,-0.904,4.831,-0.171,1136.86,-17.358
7.435,-0.0337,0.3818,0.0112,1.4006,-71.8487,0.9804,34.6,87201.0,,,,,,,
7.44,,,,,,,,,157.513,-8.677,-0.906,4.883,-0.169,1139.49,-17.339
7.445,-0.0146,0.3877,-0.0093,3.4314,-72.0588,1.1204,34.6,87198.0,,,,,,,
7.45,,,,,,,,,157.54,-8.646,-0.906,4.937,-0.165,1139.77,-17.339
7.455,-0.0645,0.3877,-0.0146,3.2213,-75.4902,1.3305,34.7,87139.0,,,,,,,
7.46,,,,,,,,,157.564,-8.615,-0.908,4.991,-0.163,1140.99,-17.321
7.465,0.0117,0.377,-0.0107,4.4118,-76.4706,1.1905,34.6,87136.0,,,,,,,
7.47,,,,,,,,,157.59,-8.582,-0.91,5.047,-0.161,1143.53,-17.321
7.475,-0.0474,0.3848,0.0,2.7311,-75.0,1.1905,34.6,87114.0,,,,,,,
7.48,,,,,,,,,157.611,-8.548,-0.912,5.104,-0.158,1143.81,-17.292
7.485,-0.0034,0.3818,-0.0093,2.9412,-71.7087,0.7703,34.6,87089.0,,,,,,,
7.49,,,,,,,,,157.635,-8.515,-0.913,5.16,-0.156,1147.19,-17.292
7.495,-0.0303,0.3652,0.0161,3.7115,-71.4986,0.7703,34.6,87077.0,,,,,,,
7.5,,,,,,,,,157.655,-8.483,-0.915,5.212,-0.153,1147.47,-17.236
7.505,0.0054,0.3794,-0.0107,1.8207,-72.619,0.8403,34.6,87064.0,,,,,,,
7.51,,,,,,,,,157.685,-8.45,-0.917,5.265,-0.15,1153.02,-17.236
7.515,0.0103,0.3745,-0.0425,4.0616,-74.4398,0.7003,34.6,87056.0,,,,,,,
7.52,,,,,,,,,157.709,-8.417,-0.917,5.318,-0.147,1153.3,-17.179
7.525,-0.0552,0.3848,0.0068,3.9916,-73.4594,0.5602,34.6,86997.0,,,,,,,
7.53,,,,,,,,,157.734,-8.382,-0.919,5.372,-0.144,1155.37,-17.179
7.535,-0.0044,0.376,-0.021,4.2717,-73.3193,0.4202,34.6,86987.0,,,,,,,
7.54,,,,,,,,,157.759,-8.348,-0.922,5.425,-0.142,1157.72,-17.179
7.545,0.0078,0.3691,-0.0142,4.4118,-71.0784,0.3501,34.6,86952.0,,,,,,,
7.55,,,,,,,,,157.782,-8.313,-0.924,5.478,-0.139,1158.85,-17.132
7.555,-0.0464,0.3794,-0.0005,4.0616,-69.5378,0.07,34.6,86950.0,,,,,,,
7.56,,,,,,,,,157.803,-8.279,-0.926,5.529,-0.137,1160.08,-17.085
7.565,-0.0405,0.376,0.0142,1.9608,-67.0868,-0.1401,34.6,86947.0,,,,,,,
7.57,,,,,,,,,157.82,-8.245,-0.929,5.579,-0.134,1160.83,-17.132
7.575,0.0239,0.377,-0.0244,2.1709,-66.5966,-0.3501,34.6,86925.0,,,,,,,
7.58,,,,,,,,,157.847,-8.213,-0.93,5.626,-0.13,1166.39,-17.066
7.585,-0.0698,0.3799,-0.0161,5.042,-67.437,-0.2801,34.6,86895.0,,,,,,,
7.59,,,,,,,,,157.871,-8.18,-0.931,5.674,-0.127,1167.33,-17.066
7.595,-0.0356,0.3687,0.0078,2.2409,-67.7871,-0.2801,34.6,86867.0,,,,,,,
7.6,,,,,,,,,157.898,-8.147,-0.934,5.721,-0.125,1170.62,-17.085
7.605,0.02,0.3716,-0.0005,3.2913,-67.6471,-0.2801,34.6,86834.0,,,,,,,
7.61,,,,,,,,,157.92,-8.113,-0.935,5.769,-0.121,1170.81,-17.066
7.615,-0.0767,0.3696,-0.0249,3.4314,-66.1765,-0.2801,34.6,86841.0,,,,,,,
7.62,,,,,,,,,157.936,-8.079,-0.936,5.816,-0.118,1171.09,-17.066
7.625,0.0215,0.3716,-0.0137,2.8711,-68.6975,-0.3501,34.6,86838.0,,,,,,,
7.63,,,,,,,,,157.953,-8.045,-0.938,5.862,-0.115,1173.17,-17.066
7.635,-0.0386,0.3604,-0.0107,5.5322,-70.9384,-0.2801,34.6,86818.0,,,,,,,
7.64,,,,,,,,,157.972,-8.01,-0.939,5.91,-0.111,1176.0,-16.981
7.645,-0.0698,0.3628,-0.0293,2.9412,-69.3277,-0.2801,34.6,86774.0,,,,,,,
7.65,,,,,,,,,157.993,-7.974,-0.943,5.959,-0.109,1178.64,-16.981
7.655,0.0059,0.3735,0.0083,2.451,-69.3277,-0.2801,34.6,86768.0,,,,,,,
7.66,,,,,,,,,158.015,-7.938,-0.944,6.006,-0.106,1181.09,-16.981
7.665,-0.0405,0.3721,-0.0347,1.6807,-68.9076,-0.1401,34.6,86743.0,,,,,,,
7.67,,,,,,,,,158.032,-7.901,-0.945,6.054,-0.102,1181.37,-16.981
7.675,-0.0542,0.3589,-0.0054,5.3221,-72.1289,-0.07,34.6,86717.0,,,,,,,
7.68,,,,,,,,,158.044,-7.865,-0.945,6.101,-0.098,1181.75,-16.981
7.685,-0.02,0.3618,-0.0005,4.902,-74.4398,0.1401,34.6,86713.0,,,,,,,
7.69,,,,,,,,,158.055,-7.827,-0.948,6.15,-0.096,1183.26,-16.944
7.695,-0.0278,0.3652,-0.0156,3.2213,-72.9692,0.1401,34.6,86715.0,,,,,,,
7.7,,,,,,,,,158.072,-7.787,-0.951,6.2,-0.093,1187.41,-16.944
7.705,-0.042,0.3628,-0.0254,1.2605,-71.9188,0.0,34.6,86681.0,,,,,,,
7.71,,,,,,,,,158.085,-7.747,-0.952,6.249,-0.09,1187.97,-16.859
7.715,-0.0347,0.3726,0.0215,2.1008,-70.5182,0.2101,34.7,86643.0,,,,,,,
7.72,,,,,,,,,158.1,-7.708,-0.952,6.297,-0.085,1190.33,-16.812
7.725,0.0127,0.3584,-0.0605,3.5714,-71.2185,0.07,34.6,86645.0,,,,,,,
7.73,,,,,,,,,158.115,-7.67,-0.952,6.344,-0.081,1192.79,-16.812
7.735,-0.061,0.3594,0.0308,5.7423,-73.0392,0.1401,34.6,86642.0,,,,,,,
7.74,,,,,,,,,158.126,-7.63,-0.953,6.391,-0.078,1192.98,-16.812
7.745,-0.0195,0.3657,-0.0161,3.0812,-74.3697,0.3501,34.6,86597.0,,,,,,,
7.75,,,,,,,,,158.131,-7.589,-0.956,6.44,-0.076,1193.17,-16.812
7.755,-0.0093,0.3599,-0.0532,4.0616,-75.4902,0.4202,34.6,86576.0,,,,,,,
7.76,,,,,,,,,158.138,-7.548,-0.957,6.488,-0.073,1196.19,-16.812
7.765,-0.042,0.356,0.0479,3.9916,-76.1204,0.3501,34.6,86562.0,,,,,,,
7.77,,,,,,,,,158.15,-7.505,-0.958,6.537,-0.07,1199.59,-16.793
7.775,-0.0322,0.3613,-0.0435,3.0112,-75.9804,0.2801,34.6,86549.0,,,,,,,
7.78,,,,,,,,,158.157,-7.461,-0.96,6.587,-0.067,1199.78,-16.793
7.785,-0.0166,0.353,-0.001,0.9804,-76.4706,0.2801,34.6,86479.0,,,,,,,
7.79,,,,,,,,,158.158,-7.418,-0.96,6.636,-0.063,1199.87,-16.783
7.795,-0.0342,0.3594,-0.0015,4.4118,-77.1008,0.4202,34.6,86475.0,,,,,,,
7.8,,,,,,,,,158.165,-7.374,-0.96,6.685,-0.058,1204.12,-16.755
7.805,-0.0186,0.354,-0.0151,3.8515,-77.0308,0.4202,34.6,86464.0,,,,,,,
7.81,,,,,,,,,158.172,-7.329,-0.961,6.734,-0.055,1206.11,-16.746
7.815,-0.0156,0.3608,-0.0054,3.6415,-74.6499,0.2801,34.6,86452.0,,,,,,,
7.82,,,,,,,,,158.178,-7.284,-0.962,6.783,-0.052,1207.43,-16.746
7.825,0.0049,0.3486,-0.0195,2.8711,-76.1905,0.2801,34.6,86460.0,,,,,,,
7.83,,,,,,,,,158.181,-7.24,-0.963,6.83,-0.049,1208.66,-16.746
7.835,-0.0522,0.3623,0.0078,0.7003,-75.3501,0.2801,34.6,86430.0,,,,,,,
7.84,,,,,,,,,158.196,-7.194,-0.963,6.877,-0.045,1215.28,-16.746
7.845,-0.0371,0.3462,-0.0098,2.2409,-75.2101,0.3501,34.6,86413.0,,,,,,,
7.85,,,,,,,,,158.207,-7.149,-0.962,6.924,-0.04,1215.66,-16.746
7.855,-0.0005,0.3545,-0.0093,4.0616,-74.2997,0.2101,34.6,86392.0,,,,,,,
7.86,,,,,,,,,158.216,-7.104,-0.962,6.971,-0.036,1216.7,-16.68
7.865,-0.0303,0.3481,-0.0098,5.3922,-74.5098,0.4202,34.6,86346.0,,,,,,,
7.87,,,,,,,,,158.22,-7.059,-0.963,7.016,-0.033,1217.08,-16.652
7.875,-0.0371,0.3447,-0.0249,2.8711,-73.7395,0.3501,34.6,86327.0,,,,,,,
7.88,,,,,,,,,158.221,-7.013,-0.965,7.062,-0.031,1217.84,-16.642
7.885,0.0063,0.3638,0.0098,2.381,-76.0504,0.2801,34.6,86318.0,,,,,,,
7.89,,,,,,,,,158.222,-6.968,-0.965,7.106,-0.028,1219.92,-16.642
7.895,-0.0762,0.3413,-0.0273,3.8515,-75.4202,0.3501,34.6,86327.0,,,,,,,
7.9,,,,,,,,,158.222,-6.921,-0.965,7.152,-0.023,1221.53,-16.642
7.905,-0.0537,0.3462,0.0288,3.9916,-74.5798,0.3501,34.6,86306.0,,,,,,,
7.91,,,,,,,,,158.223,-6.874,-0.966,7.197,-0.02,1223.52,-16.538
7.915,0.002,0.3535,-0.04,2.1709,-72.479,0.4202,34.6,86237.0,,,,,,,
7.92,,,,,,,,,158.23,-6.827,-0.966,7.241,-0.017,1227.88,-16.529
7.925,-0.0518,0.3462,0.0142,2.591,-71.7087,0.4202,34.6,86253.0,,,,,,,
7.93,,,,,,,,,158.237,-6.782,-0.966,7.284,-0.014,1229.68,-16.529
7.935,-0.0132,0.3403,-0.0171,2.2409,-71.4286,0.3501,34.6,86237.0,,,,,,,
7.94,,,,,,,,,158.238,-6.736,-0.966,7.326,-0.01,1229.68,-16.491
7.945,0.0063,0.3477,0.0029,2.8011,-71.7787,0.2801,34.6,86246.0,,,,,,,
7.95,,,,,,,,,158.236,-6.691,-0.965,7.368,-0.006,1230.53,-16.491
7.955,-0.0464,0.3516,-0.001,3.0112,-73.8095,0.2801,34.6,86206.0,,,,,,,
7.96,,,,,,,,,158.231,-6.645,-0.965,7.409,-0.003,1231.67,-16.491
7.965,-0.0186,0.3438,-0.0308,3.0112,-73.3894,0.2101,34.6,86176.0,,,,,,,
7.97,,,,,,,,,158.235,-6.598,-0.965,7.452,0.0,1236.69,-16.491
7.975,-0.0166,0.3315,0.019,4.4818,-74.5098,0.1401,34.6,86166.0,,,,,,,
7.98,,,,,,,,,158.235,-6.55,-0.965,7.493,0.003,1237.36,-16.491
7.985,-0.0454,0.3452,-0.0186,3.4314,-74.0196,0.2101,34.6,86153.0,,,,,,,
7.99,,,,,,,,,158.232,-6.501,-0.966,7.536,0.006,1238.21,-16.491
7.995,0.0029,0.3389,0.0249,2.1709,-74.2997,0.1401,34.6,86112.0,,,,,,,
8.0,,,,,,,,,158.223,-6.453,-0.966,7.577,0.009,1238.21,-16.491
8.005,-0.0479,0.3433,-0.0249,3.2213,-75.7703,0.07,34.6,86100.0,,,,,,,
8.01,,,,,,,,,158.217,-6.404,-0.965,7.619,0.014,1241.15,-16.473
8.015,-0.0029,0.3438,0.0068,5.1821,-74.6499,0.1401,34.6,86105.0,,,,,,,
8.02,,,,,,,,,158.213,-6.354,-0.965,7.66,0.017,1244.0,-16.444
8.025,0.0024,0.3389,-0.0347,3.4314,-77.1709,0.07,34.6,86058.0,,,,,,,
8.03,,,,,,,,,158.206,-6.304,-0.966,7.701,0.019,1244.95,-16.444
8.035,-0.0347,0.3335,0.0068,3.0112,-76.8908,-0.07,34.6,86068.0,,,,,,,
8.04,,,,,,,,,158.198,-6.252,-0.967,7.743,0.023,1246.18,-16.444
8.045,-0.0254,0.3345,-0.0249,3.4314,-78.1513,-0.1401,34.6,86039.0,,,,,,,
8.05,,,,,,,,,158.194,-6.201,-0.966,7.785,0.027,1250.07,-16.435
8.055,0.0264,0.3428,0.0176,3.3613,-78.2913,-0.2101,34.6,86034.0,,,,,,,
8.06,,,,,,,,,158.188,-6.148,-0.967,7.827,0.031,1250.74,-16.35
8.065,-0.0747,0.334,-0.0181,2.381,-78.7815,-0.3501,34.6,85993.0,,,,,,,
8.07,,,,,,,,,158.177,-6.094,-0.967,7.868,0.035,1251.21,-16.35
8.075,-0.0132,0.334,-0.0342,3.0112,-77.381,-0.5602,34.6,85970.0,,,,,,,
8.08,,,,,,,,,158.17,-6.041,-0.966,7.91,0.04,1254.25,-16.35
8.085,-0.0117,0.3413,-0.0103,2.3109,-75.4202,-0.5602,34.6,85956.0,,,,,,,
8.09,,,,,,,,,158.159,-5.987,-0.966,7.95,0.044,1255.2,-16.35
8.095,-0.0356,0.3315,-0.0386,0.7003,-73.4594,-0.7003,34.6,85950.0,,,,,,,
8.1,,,,,,,,,158.148,-5.935,-0.966,7.989,0.048,1257.01,-16.35
8.105,-0.019,0.3315,0.0029,0.1401,-73.8095,-0.8403,34.6,85909.0,,,,,,,
8.11,,,,,,,,,158.134,-5.885,-0.965,8.026,0.054,1257.48,-16.265
8.115,-0.0103,0.3335,-0.0078,3.9216,-72.0588,-0.7703,34.6,85893.0,,,,,,,
8.12,,,,,,,,,158.124,-5.833,-0.963,8.064,0.06,1261.38,-16.256
8.125,-0.0396,0.3228,-0.042,3.7815,-72.549,-0.8403,34.6,85896.0,,,,,,,
8.13,,,,,,,,,158.116,-5.783,-0.964,8.1,0.063,1263.57,-16.256
8.135,-0.0044,0.3345,0.0107,4.2017,-71.0084,-0.9104,34.6,85855.0,,,,,,,
8.14,,,,,,,,,158.105,-5.732,-0.964,8.136,0.067,1264.9,-16.256
8.145,-0.042,0.3232,-0.002,3.2913,-69.3277,-1.0504,34.6,85832.0,,,,,,,
8.15,,,,,,,,,158.091,-5.681,-0.965,8.171,0.07,1265.47,-16.256
8.155,-0.0264,0.332,-0.0303,2.8011,-69.6779,-1.0504,34.6,85812.0,,,,,,,
8.16,,,,,,,,,158.082,-5.632,-0.965,8.205,0.074,1269.37,-16.246
8.165,-0.0303,0.332,-0.0273,0.7003,-70.4482,-0.9804,34.6,85800.0,,,,,,,
8.17,,,,,,,,,158.071,-5.583,-0.965,8.239,0.078,1270.61,-16.218
8.175,-0.0107,0.335,0.0161,1.3305,-69.888,-0.9804,34.6,85801.0,,,,,,,
8.18,,,,,,,,,158.055,-5.533,-0.964,8.273,0.083,1270.89,-16.218
8.185,-0.0356,0.3237,0.0024,3.5014,-70.3081,-0.8403,34.6,85770.0,,,,,,,
8.19,,,,,,,,,158.044,-5.483,-0.963,8.306,0.088,1274.51,-16.218
8.195,-0.0381,0.3311,-0.0513,0.4902,-71.9188,-0.7703,34.6,85758.0,,,,,,,
8.2,,,,,,,,,158.034,-5.432,-0.964,8.339,0.092,1276.7,-16.218
8.205,-0.0259,0.3247,0.0464,2.521,-70.3782,-0.7703,34.6,85767.0,,,,,,,
8.21,,,,,,,,,158.023,-5.38,-0.962,8.373,0.097,1278.6,-16.218
8.215,-0.0503,0.3281,-0.063,3.0112,-70.2381,-0.7003,34.6,85729.0,,,,,,,
8.22,,,,,,,,,158.01,-5.329,-0.962,8.406,0.101,1279.65,-16.199
8.225,-0.0103,0.3169,0.0044,4.3417,-70.1681,-0.6303,34.6,85709.0,,,,,,,
8.23,,,,,,,,,157.991,-5.278,-0.961,8.438,0.105,1279.74,-16.199
8.235,-0.0327,0.3232,0.0156,5.2521,-71.0784,-0.4902,34.6,85701.0,,,,,,,
8.24,,,,,,,,,157.976,-5.226,-0.961,8.47,0.108,1282.6,-16.143
8.245,-0.0596,0.3301,-0.0132,1.8207,-71.3585,-0.4902,34.6,85705.0,,,,,,,
8.25,,,,,,,,,157.956,-5.174,-0.962,8.502,0.11,1282.89,-16.143
8.255,-0.0137,0.3101,0.0088,3.5714,-72.1989,-0.2801,34.6,85657.0,,,,,,,
8.26,,,,,,,,,157.933,-5.121,-0.961,8.534,0.114,1283.74,-16.143
8.265,-0.02,0.3247,0.0034,3.0812,-71.8487,-0.1401,34.6,85640.0,,,,,,,
8.27,,,,,,,,,157.912,-5.068,-0.96,8.565,0.118,1286.51,-16.077
8.275,-0.0347,0.3213,-0.0488,1.8207,-70.3081,-0.1401,34.6,85612.0,,,,,,,
8.28,,,,,,,,,157.892,-5.014,-0.959,8.597,0.121,1288.41,-16.077
8.285,-0.0181,0.3228,0.0332,1.8207,-71.4986,-0.1401,34.6,85577.0,,,,,,,
