ts,Ax,Ay,Az,Gx,Gy,Gz,T,P,velocity,q0_estimated,q1_estimated,q2_estimated,q3_estimated,filtered_altitude_AGL,filtered_acceleration
-0.76,,,,,,,,,0.239,,,,,,
-0.755,-0.0186,-0.4951,-0.0361,-0.5602,-1.8908,-0.5602,38.0,100045.0,,,,,,,
-0.75,,,,,,,,,0.233,-7.712,-5.854,1.237,2.169,-0.03,-0.217
-0.745,-0.021,-0.498,-0.0381,-0.5602,-1.6807,-0.5602,38.0,100045.0,,,,,,,
-0.74,,,,,,,,,0.231,-7.712,-5.854,1.238,2.17,0.14,-0.227
-0.735,-0.02,-0.4961,-0.0425,-0.4902,-1.6106,-0.6303,38.0,100049.0,,,,,,,
-0.73,,,,,,,,,0.229,-7.712,-5.854,1.239,2.17,0.14,-0.217
-0.725,-0.0171,-0.4961,-0.042,-0.4902,-1.6807,-0.6303,38.0,100048.0,,,,,,,
-0.72,,,,,,,,,0.223,-7.712,-5.853,1.239,2.171,-0.03,-0.217
-0.715,-0.0156,-0.4956,-0.0352,-0.4902,-1.8908,-0.5602,38.0,100017.0,,,,,,,
-0.71,,,,,,,,,0.218,-7.712,-5.853,1.239,2.171,-0.03,-0.217
-0.705,-0.0161,-0.4966,-0.0308,-0.4902,-1.9608,-0.6303,38.0,100055.0,,,,,,,
-0.7,,,,,,,,,0.216,-7.712,-5.853,1.24,2.172,0.14,-0.217
-0.695,-0.0156,-0.498,-0.0337,-0.5602,-1.9608,-0.5602,38.0,100014.0,,,,,,,
-0.69,,,,,,,,,0.214,-7.712,-5.853,1.241,2.172,0.14,-0.217
-0.685,-0.0156,-0.4956,-0.0366,-0.6303,-2.0308,-0.5602,38.0,100032.0,,,,,,,
-0.68,,,,,,,,,0.212,-7.712,-5.852,1.241,2.173,0.14,-0.217
-0.675,-0.02,-0.4956,-0.0391,-0.6303,-1.9608,-0.5602,38.0,100034.0,,,,,,,
-0.67,,,,,,,,,0.21,-7.712,-5.852,1.242,2.174,0.14,-0.217
-0.665,-0.0181,-0.4951,-0.0371,-0.5602,-2.0308,-0.5602,38.0,100040.0,,,,,,,
-0.66,,,,,,,,,0.208,-7.712,-5.852,1.243,2.174,0.14,-0.217
-0.655,-0.0195,-0.4961,-0.0347,-0.4902,-1.9608,-0.5602,38.0,100049.0,,,,,,,
-0.65,,,,,,,,,0.214,-7.712,-5.851,1.243,2.175,0.55,-0.217
-0.645,-0.0166,-0.4966,-0.0327,-0.4902,-1.9608,-0.5602,38.0,100050.0,,,,,,,
-0.64,,,,,,,,,0.221,-7.711,-5.851,1.244,2.176,0.55,-0.217
-0.635,-0.0156,-0.4956,-0.0352,-0.5602,-1.9608,-0.5602,38.0,100044.0,,,,,,,
-0.63,,,,,,,,,0.227,-7.711,-5.851,1.245,2.176,0.55,-0.217
-0.625,-0.0176,-0.4956,-0.0396,-0.6303,-1.9608,-0.6303,37.9,100008.0,,,,,,,
-0.62,,,,,,,,,0.233,-7.711,-5.85,1.245,2.177,0.55,-0.227
-0.615,-0.0195,-0.4951,-0.0449,-0.5602,-1.8207,-0.5602,37.9,100036.0,,,,,,,
-0.61,,,,,,,,,0.239,-7.711,-5.85,1.246,2.178,0.55,-0.227
-0.605,-0.0176,-0.4966,-0.0396,-0.4902,-1.7507,-0.5602,38.0,100039.0,,,,,,,
-0.6,,,,,,,,,0.251,-7.711,-5.85,1.246,2.178,0.88,-0.227
-0.595,-0.0176,-0.4951,-0.0327,-0.4202,-1.7507,-0.4902,38.0,100048.0,,,,,,,
-0.59,,,,,,,,,0.258,-7.711,-5.85,1.247,2.179,0.62,-0.227
-0.585,-0.0181,-0.4956,-0.0308,-0.4202,-1.7507,-0.5602,38.0,100038.0,,,,,,,
-0.58,,,,,,,,,0.263,-7.711,-5.849,1.247,2.179,0.55,-0.227
-0.575,-0.0176,-0.4946,-0.0322,-0.4202,-1.6106,-0.4902,38.0,100041.0,,,,,,,
-0.57,,,,,,,,,0.268,-7.711,-5.849,1.248,2.18,0.55,-0.227
-0.565,-0.0171,-0.4971,-0.0381,-0.5602,-1.5406,-0.5602,38.0,99999.0,,,,,,,
-0.56,,,,,,,,,0.271,-7.711,-5.849,1.248,2.18,0.45,-0.227
-0.555,-0.0186,-0.4956,-0.0391,-0.4202,-1.4006,-0.4902,38.0,100032.0,,,,,,,
-0.55,,,,,,,,,0.277,-7.711,-5.849,1.249,2.181,0.62,-0.227
-0.545,-0.0195,-0.4946,-0.0381,-0.5602,-1.1204,-0.4902,38.0,100051.0,,,,,,,
-0.54,,,,,,,,,0.285,-7.711,-5.849,1.249,2.181,0.71,-0.227
-0.535,-0.0186,-0.4966,-0.0308,-0.4902,-0.8403,-0.5602,38.0,100044.0,,,,,,,
-0.53,,,,,,,,,0.293,-7.711,-5.848,1.249,2.181,0.71,-0.227
-0.525,-0.0171,-0.4961,-0.0273,-0.4902,-0.6303,-0.5602,38.0,100057.0,,,,,,,
-0.52,,,,,,,,,0.299,-7.711,-5.848,1.249,2.181,0.62,-0.227
-0.515,-0.0156,-0.4961,-0.0317,-0.6303,-0.6303,-0.5602,38.0,100038.0,,,,,,,
-0.51,,,,,,,,,0.301,-7.711,-5.848,1.249,2.181,0.45,-0.227
-0.505,-0.0176,-0.4937,-0.041,-0.6303,-0.6303,-0.5602,37.9,100047.0,,,,,,,
-0.5,,,,,,,,,0.302,-7.711,-5.848,1.249,2.181,0.45,-0.227
-0.495,-0.0171,-0.4961,-0.04,-0.4902,-0.7703,-0.5602,38.0,100044.0,,,,,,,
-0.49,,,,,,,,,0.304,-7.712,-5.848,1.248,2.181,0.45,-0.227
-0.485,-0.0161,-0.4951,-0.0352,-0.5602,-0.7003,-0.4902,38.0,100053.0,,,,,,,
-0.48,,,,,,,,,0.3,-7.712,-5.848,1.248,2.181,0.19,-0.217
-0.475,-0.0161,-0.4966,-0.0332,-0.4902,-0.7703,-0.4902,38.0,100040.0,,,,,,,
-0.47,,,,,,,,,0.296,-7.712,-5.848,1.248,2.181,0.19,-0.217
-0.465,-0.0186,-0.4956,-0.0337,-0.6303,-0.7003,-0.4902,38.0,100039.0,,,,,,,
-0.46,,,,,,,,,0.293,-7.712,-5.848,1.248,2.181,0.19,-0.217
-0.455,-0.0205,-0.4966,-0.0361,-0.6303,-0.7003,-0.4902,38.0,100045.0,,,,,,,
-0.45,,,,,,,,,0.289,-7.712,-5.848,1.248,2.181,0.19,-0.217
-0.445,-0.0225,-0.4951,-0.0371,-0.6303,-0.6303,-0.5602,38.0,100042.0,,,,,,,
-0.44,,,,,,,,,0.285,-7.712,-5.848,1.248,2.181,0.19,-0.217
-0.435,-0.0181,-0.4961,-0.0386,-0.6303,-0.4902,-0.6303,38.0,100052.0,,,,,,,
-0.43,,,,,,,,,0.281,-7.712,-5.847,1.247,2.181,0.19,-0.217
-0.425,-0.0166,-0.4941,-0.0327,-0.5602,-0.4202,-0.5602,38.0,100047.0,,,,,,,
-0.42,,,,,,,,,0.277,-7.712,-5.847,1.247,2.181,0.19,-0.217
-0.415,-0.0186,-0.4951,-0.0317,-0.5602,-0.3501,-0.5602,38.0,100035.0,,,,,,,
-0.41,,,,,,,,,0.272,-7.712,-5.847,1.247,2.181,0.11,-0.227
-0.405,-0.0195,-0.4961,-0.0342,-0.5602,-0.3501,-0.5602,38.0,100047.0,,,,,,,
-0.4,,,,,,,,,0.268,-7.713,-5.847,1.246,2.181,0.19,-0.227
-0.395,-0.0205,-0.4946,-0.0381,-0.5602,-0.2101,-0.4902,38.0,100043.0,,,,,,,
-0.39,,,,,,,,,0.262,-7.713,-5.847,1.246,2.18,0.11,-0.227
-0.385,-0.022,-0.4956,-0.0405,-0.5602,0.07,-0.4902,38.0,100060.0,,,,,,,
-0.38,,,,,,,,,0.261,-7.713,-5.847,1.245,2.18,0.27,-0.227
-0.375,-0.0205,-0.4966,-0.0391,-0.5602,0.07,-0.5602,38.0,100033.0,,,,,,,
-0.37,,,,,,,,,0.255,-7.713,-5.847,1.244,2.18,0.11,-0.227
-0.365,-0.0195,-0.4971,-0.0386,-0.4202,0.0,-0.4902,38.0,100056.0,,,,,,,
-0.36,,,,,,,,,0.25,-7.713,-5.847,1.244,2.179,0.11,-0.227
-0.355,-0.0176,-0.4966,-0.0347,-0.4202,0.07,-0.4902,38.0,100050.0,,,,,,,
-0.35,,,,,,,,,0.241,-7.713,-5.848,1.243,2.179,-0.06,-0.227
-0.345,-0.0166,-0.4956,-0.0317,-0.4902,0.07,-0.6303,38.0,100053.0,,,,,,,
-0.34,,,,,,,,,0.232,-7.714,-5.848,1.242,2.178,-0.06,-0.217
-0.335,-0.0181,-0.4956,-0.0376,-0.5602,0.0,-0.5602,38.0,100041.0,,,,,,,
-0.33,,,,,,,,,0.223,-7.714,-5.848,1.242,2.178,-0.06,-0.227
-0.325,-0.0181,-0.4971,-0.0391,-0.4902,-0.1401,-0.5602,38.0,100053.0,,,,,,,
-0.32,,,,,,,,,0.214,-7.714,-5.848,1.241,2.178,-0.06,-0.227
-0.315,-0.02,-0.4956,-0.0366,-0.5602,-0.2801,-0.4902,38.0,100044.0,,,,,,,
-0.31,,,,,,,,,0.201,-7.714,-5.848,1.24,2.177,-0.31,-0.217
-0.305,-0.022,-0.4946,-0.0356,-0.4902,-0.3501,-0.5602,38.0,100031.0,,,,,,,
-0.3,,,,,,,,,0.187,-7.714,-5.848,1.24,2.177,-0.31,-0.227
-0.295,-0.0171,-0.4966,-0.0347,-0.5602,-0.4202,-0.5602,38.0,100056.0,,,,,,,
-0.29,,,,,,,,,0.174,-7.714,-5.848,1.24,2.177,-0.31,-0.227
-0.285,-0.0151,-0.4966,-0.0342,-0.4902,-0.7003,-0.5602,38.0,100057.0,,,,,,,
-0.28,,,,,,,,,0.161,-7.714,-5.848,1.239,2.177,-0.31,-0.208
-0.275,-0.0215,-0.4951,-0.0356,-0.4202,-1.1905,-0.5602,38.0,100051.0,,,,,,,
-0.27,,,,,,,,,0.143,-7.714,-5.848,1.239,2.177,-0.57,-0.208
-0.265,-0.0181,-0.4941,-0.0386,-0.5602,-1.2605,-0.5602,38.0,100041.0,,,,,,,
-0.26,,,,,,,,,0.129,-7.714,-5.848,1.239,2.177,-0.4,-0.227
-0.255,-0.0122,-0.5024,-0.0396,-0.4902,-1.1905,-0.5602,38.0,100048.0,,,,,,,
-0.25,,,,,,,,,0.115,-7.714,-5.848,1.239,2.177,-0.4,-0.227
-0.245,-0.0259,-0.4878,-0.0386,-0.4202,-1.5406,-0.4202,38.0,100038.0,,,,,,,
-0.24,,,,,,,,,0.106,-7.714,-5.847,1.239,2.178,-0.15,-0.227
-0.235,-0.0225,-0.5005,-0.0293,-0.4202,-2.1008,-0.5602,38.0,100057.0,,,,,,,
-0.23,,,,,,,,,0.098,-7.714,-5.847,1.24,2.178,-0.15,-0.227
-0.225,-0.0229,-0.5034,-0.0288,-0.2801,-2.9412,-0.5602,38.0,100023.0,,,,,,,
-0.22,,,,,,,,,0.09,-7.714,-5.847,1.241,2.179,-0.15,-0.227
-0.215,-0.0537,-0.564,-0.0107,0.2801,-2.7311,0.0,38.0,100032.0,,,,,,,
-0.21,,,,,,,,,0.082,-7.714,-5.847,1.242,2.18,-0.15,-0.208
-0.205,-0.0547,-0.6318,-0.0493,-1.4006,0.4902,-1.4706,38.0,100023.0,,,,,,,
-0.2,,,,,,,,,0.075,-7.714,-5.847,1.244,2.18,-0.15,-0.208
-0.195,0.0112,-0.9526,-0.019,-4.3417,10.3641,-1.9608,38.0,99973.0,,,,,,,
-0.19,,,,,,,,,0.08,-7.714,-5.846,1.242,2.18,0.44,-0.132
-0.185,-0.0635,-1.1704,-0.0347,-3.3613,14.4958,-0.07,38.0,99960.0,,,,,,,
-0.18,,,,,,,,,0.092,-7.717,-5.846,1.233,2.176,0.7,-0.094
-0.175,-0.0425,-1.3027,-0.0068,-1.2605,17.507,-1.4706,38.0,99958.0,,,,,,,
-0.17,,,,,,,,,0.114,-7.72,-5.847,1.222,2.168,1.2,-0.076
-0.165,0.0518,-1.4604,-0.019,-0.5602,20.028,-1.1905,38.0,99919.0,,,,,,,
-0.16,,,,,,,,,0.163,-7.722,-5.85,1.209,2.16,1.95,1.095
-0.155,0.0415,-1.6016,-0.0527,-1.4706,24.2297,0.3501,38.0,99945.0,,,,,,,
-0.15,,,,,,,,,0.225,-7.725,-5.854,1.195,2.15,1.95,2.408
-0.145,0.0015,-1.6797,-0.0742,-2.8011,30.6723,0.2801,38.0,99957.0,,,,,,,
-0.14,,,,,,,,,0.436,-7.728,-5.858,1.178,2.136,6.14,8.611
-0.135,-0.0308,-1.7324,-0.1372,-1.8207,36.3445,0.8403,38.0,99988.0,,,,,,,
-0.13,,,,,,,,,0.71,-7.732,-5.862,1.157,2.12,7.22,12.822
-0.125,-0.0283,-1.7563,-0.0483,1.5406,35.7143,0.2101,38.0,99985.0,,,,,,,
-0.12,,,,,,,,,1.007,-7.737,-5.868,1.132,2.1,7.22,15.381
-0.115,0.0024,-1.7808,0.0469,3.7815,29.2717,-1.4706,37.9,100023.0,,,,,,,
-0.11,,,,,,,,,1.33,-7.74,-5.875,1.108,2.081,7.22,18.43
-0.105,-0.0503,-1.8174,0.0356,3.1513,25.7703,-0.9104,38.0,99973.0,,,,,,,
-0.1,,,,,,,,,1.679,-7.74,-5.884,1.088,2.066,7.22,21.159
-0.095,-0.0938,-1.8564,0.0034,-0.7703,28.0112,-0.07,38.0,99982.0,,,,,,,
-0.09,,,,,,,,,2.039,-7.741,-5.891,1.07,2.052,7.22,22.67
-0.085,-0.0454,-1.9077,-0.0498,-2.0308,31.3025,-0.5602,38.0,99974.0,,,,,,,
-0.08,,,,,,,,,2.38,-7.744,-5.896,1.051,2.037,6.02,23.689
-0.075,-0.041,-1.9595,-0.0249,1.6106,32.3529,-0.7703,38.0,99961.0,,,,,,,
-0.07,,,,,,,,,2.722,-7.748,-5.9,1.029,2.02,5.92,24.152
-0.065,-0.0371,-2.0391,-0.0063,3.4314,33.0532,-1.3305,38.0,99965.0,,,,,,,
-0.06,,,,,,,,,3.066,-7.75,-5.908,1.006,2.003,5.92,24.624
-0.055,0.0146,-2.1128,0.021,1.0504,31.0924,-1.4706,38.0,99959.0,,,,,,,
-0.05,,,,,,,,,3.414,-7.751,-5.916,0.984,1.986,5.92,25.332
-0.045,-0.001,-2.1494,0.0327,0.1401,28.1513,-1.0504,38.0,99946.0,,,,,,,
-0.04,,,,,,,,,3.767,-7.752,-5.923,0.962,1.97,5.92,26.088
-0.035,0.0293,-2.3086,-0.0059,-0.1401,30.112,0.3501,38.0,99956.0,,,,,,,
-0.03,,,,,,,,,4.129,-7.754,-5.928,0.942,1.955,6.02,27.079
-0.025,-0.0186,-2.3599,-0.0635,-4.5518,26.8207,1.4006,37.9,99915.0,,,,,,,
-0.02,,,,,,,,,4.513,-7.757,-5.933,0.921,1.939,6.65,28.08
-0.015,-0.0601,-2.4463,-0.021,-3.6415,26.8207,1.1204,38.0,99902.0,,,,,,,
-0.01,,,,,,,,,4.915,-7.762,-5.935,0.903,1.924,7.0,29.619
-0.005,-0.0317,-2.5806,-0.0283,0.7003,29.2017,0.6303,38.0,99889.0,,,,,,,
0.0,,,,,,,,,5.332,-7.766,-5.937,0.885,1.908,7.14,31.045
0.005,-0.0347,-2.6914,-0.0308,1.6106,25.9104,-0.2101,37.9,99901.0,,,,,,,
0.01,,,,,,,,,5.652,9.999,0.0,0.026,0.0,7.36,31.753
0.015,-0.0205,-2.771,0.0107,0.9804,19.6779,-0.4902,38.0,99888.0,,,,,,,
0.02,,,,,,,,,6.003,9.999,0.002,0.049,0.001,8.22,34.831
0.025,-0.0366,-2.8232,0.0273,2.521,14.5658,-0.7003,38.0,99944.0,,,,,,,
0.03,,,,,,,,,6.364,9.999,0.003,0.067,0.001,10.79,35.822
0.035,-0.0737,-2.9082,-0.0312,4.2017,12.535,-1.8207,38.0,99970.0,,,,,,,
0.04,,,,,,,,,6.742,9.999,0.006,0.08,0.0,10.79,37.493
0.045,-0.0532,-2.8848,-0.0547,0.0,13.0252,-2.6611,38.0,100000.0,,,,,,,
0.05,,,,,,,,,7.145,9.999,0.01,0.092,0.0,10.79,40.09
0.055,0.0059,-2.8608,-0.0645,1.4006,12.8151,-2.7311,38.0,100025.0,,,,,,,
0.06,,,,,,,,,7.57,9.999,0.01,0.104,-0.002,10.79,42.233
0.065,-0.0034,-2.8071,-0.0806,1.4706,12.465,-1.7507,38.0,100053.0,,,,,,,
0.07,,,,,,,,,8.01,9.999,0.012,0.116,-0.004,10.79,43.772
0.075,-0.002,-2.7681,-0.0747,2.381,11.0644,-0.7703,38.0,100064.0,,,,,,,
0.08,,,,,,,,,8.458,9.999,0.013,0.128,-0.005,8.3,44.471
0.085,-0.0156,-2.7578,0.0112,3.0112,7.6331,-0.4902,38.0,100035.0,,,,,,,
0.09,,,,,,,,,8.905,9.999,0.016,0.138,-0.005,6.11,44.471
0.095,-0.103,-2.7896,-0.0083,4.2717,-1.1204,-0.4902,38.0,100007.0,,,,,,,
0.1,,,,,,,,,9.352,9.998,0.019,0.146,-0.005,3.59,44.471
0.105,-0.0957,-2.8989,-0.0591,3.8515,-4.2717,-1.8207,38.0,99995.0,,,,,,,
0.11,,,,,,,,,9.799,9.998,0.023,0.145,-0.005,3.0,44.471
0.115,-0.0454,-2.9434,-0.0469,2.381,-11.6246,-2.9412,38.0,100009.0,,,,,,,
0.12,,,,,,,,,10.25,9.998,0.026,0.143,-0.006,3.0,44.782
0.125,-0.0864,-2.9985,-0.0361,4.8319,-20.3081,-2.9412,38.0,100001.0,,,,,,,
0.13,,,,,,,,,10.707,9.999,0.029,0.133,-0.009,2.83,45.509
0.135,-0.0278,-3.082,0.042,4.972,-18.9076,-2.9412,38.0,99991.0,,,,,,,
0.14,,,,,,,,,11.165,9.999,0.033,0.116,-0.011,2.83,45.509
0.145,0.0601,-3.1602,0.1177,4.2017,-14.0056,-2.591,38.0,99965.0,,,,,,,
0.15,,,,,,,,,11.623,9.999,0.038,0.1,-0.013,2.83,45.509
0.155,0.0732,-3.2754,0.1206,4.4118,-10.5742,-0.8403,37.9,99977.0,,,,,,,
0.16,,,,,,,,,12.088,9.999,0.042,0.089,-0.015,3.0,46.246
0.165,-0.0146,-3.3687,0.0142,1.7507,-12.8151,0.0,38.0,99953.0,,,,,,,
0.17,,,,,,,,,12.561,9.999,0.046,0.081,-0.016,3.5,47.105
0.175,-0.0752,-3.4429,-0.0107,-1.7507,-16.3165,0.07,37.9,99917.0,,,,,,,
0.18,,,,,,,,,13.045,9.999,0.048,0.07,-0.015,4.01,48.172
0.185,-0.105,-3.564,-0.0537,-0.7003,-15.4762,0.3501,37.9,99960.0,,,,,,,
0.19,,,,,,,,,13.546,9.999,0.046,0.057,-0.015,4.34,49.786
0.195,-0.1025,-3.6035,0.1357,4.1317,-17.7871,-1.4706,38.0,100003.0,,,,,,,
0.2,,,,,,,,,14.061,9.999,0.046,0.044,-0.014,5.52,51.297
0.205,-0.0005,-3.772,0.2261,8.8936,-22.2689,-0.6303,38.0,99945.0,,,,,,,
0.21,,,,,,,,,14.599,9.999,0.05,0.029,-0.015,5.52,53.525
0.215,-0.084,-3.7339,0.0146,-0.9804,-23.4594,2.0308,37.9,99988.0,,,,,,,
0.22,,,,,,,,,15.155,9.999,0.058,0.01,-0.015,6.53,55.329
0.225,-0.0522,-3.7231,-0.0996,-7.0728,-20.3081,-4.1317,38.0,99993.0,,,,,,,
0.23,,,,,,,,,15.725,9.999,0.058,-0.008,-0.013,6.53,56.764
0.235,0.1162,-3.7729,-0.1084,-5.9524,-20.7283,-3.4314,38.0,99971.0,,,,,,,
0.24,,,,,,,,,16.319,9.999,0.052,-0.025,-0.017,6.53,59.105
0.245,0.0781,-3.8076,-0.1128,-1.6106,-30.9524,0.7703,37.9,99982.0,,,,,,,
0.25,,,,,,,,,16.92,9.999,0.047,-0.042,-0.019,6.03,59.87
0.255,-0.0356,-3.8032,0.0132,2.521,-37.535,0.7003,37.9,99979.0,,,,,,,
0.26,,,,,,,,,17.545,9.999,0.046,-0.069,-0.018,6.03,62.183
0.265,-0.041,-3.8931,0.1792,7.8431,-38.1653,0.7703,37.9,99986.0,,,,,,,
0.27,,,,,,,,,18.171,9.999,0.048,-0.101,-0.018,5.35,62.391
0.275,-0.0879,-3.9658,-0.0156,3.4314,-33.9636,3.2213,38.0,99954.0,,,,,,,
0.28,,,,,,,,,18.805,9.998,0.055,-0.133,-0.017,5.1,63.128
0.285,-0.0078,-3.9922,0.0806,-2.0308,-39.0756,-0.5602,38.0,99936.0,,,,,,,
0.29,,,,,,,,,19.439,9.998,0.058,-0.162,-0.013,5.1,63.147
0.295,0.0654,-4.061,-0.0591,0.07,-47.8992,-2.9412,38.0,99978.0,,,,,,,
0.3,,,,,,,,,20.079,9.997,0.057,-0.195,-0.014,5.35,63.732
0.305,0.1079,-4.0635,-0.1011,-0.7003,-47.619,0.1401,38.0,99969.0,,,,,,,
0.31,,,,,,,,,20.719,9.997,0.057,-0.236,-0.016,5.35,63.817
0.315,-0.0361,-4.041,-0.2446,-0.4902,-53.6415,2.1709,37.9,99974.0,,,,,,,
0.32,,,,,,,,,21.377,9.995,0.057,-0.277,-0.016,5.44,65.469
0.325,-0.1104,-4.0361,0.0059,3.2913,-49.2297,1.9608,38.0,99928.0,,,,,,,
0.33,,,,,,,,,22.048,9.994,0.057,-0.323,-0.014,5.77,66.876
0.335,-0.0713,-4.1802,0.1284,12.8852,-33.2633,2.381,38.0,99950.0,,,,,,,
0.34,,,,,,,,,22.724,9.993,0.06,-0.365,-0.012,5.77,67.386
0.345,0.0371,-4.2231,0.1592,7.7031,-26.9608,4.8319,37.9,99953.0,,,,,,,
0.35,,,,,,,,,23.409,9.991,0.071,-0.394,-0.009,6.2,68.236
0.355,-0.1924,-4.1792,0.1357,1.8908,-36.5546,3.0812,37.9,99954.0,,,,,,,
0.36,,,,,,,,,24.095,9.99,0.078,-0.416,-0.004,7.46,68.33
0.365,-0.1187,-4.1899,0.123,0.9804,-34.8739,2.0308,38.0,99958.0,,,,,,,
0.37,,,,,,,,,24.785,9.989,0.08,-0.448,-0.001,7.46,68.717
0.375,-0.1802,-4.2261,-0.103,-2.591,-38.7255,0.1401,38.0,99926.0,,,,,,,
0.38,,,,,,,,,25.475,9.988,0.081,-0.477,0.0,7.46,68.764
0.385,-0.1602,-4.2681,-0.0898,-4.1317,-45.7983,-4.0616,38.0,99943.0,,,,,,,
0.39,,,,,,,,,26.187,9.986,0.079,-0.51,0.0,7.46,71.002
0.395,0.0059,-4.3584,-0.0361,0.3501,-42.0168,-6.7927,38.0,99947.0,,,,,,,
0.4,,,,,,,,,26.9,9.984,0.076,-0.549,-0.003,7.54,71.021
0.405,-0.2397,-4.3081,0.1196,2.521,-36.3445,-0.7703,37.9,99903.0,,,,,,,
0.41,,,,,,,,,27.615,9.982,0.077,-0.585,-0.009,7.79,71.21
0.415,-0.0762,-4.4453,0.1636,3.2913,-31.0224,-1.6106,38.0,99932.0,,,,,,,
0.42,,,,,,,,,28.336,9.98,0.079,-0.616,-0.009,8.05,71.852
0.425,-0.1704,-4.4033,0.3652,-2.1709,-18.4174,-2.2409,37.9,99925.0,,,,,,,
0.43,,,,,,,,,29.057,9.978,0.082,-0.642,-0.01,8.05,71.909
0.435,-0.1494,-4.3882,0.2026,-3.9216,-5.1821,-2.591,38.0,99928.0,,,,,,,
0.44,,,,,,,,,29.787,9.977,0.081,-0.657,-0.012,8.38,72.721
0.445,-0.0278,-4.4097,0.1909,-7.7731,10.9244,-4.4818,37.9,99923.0,,,,,,,
0.45,,,,,,,,,30.524,9.977,0.078,-0.661,-0.014,9.31,73.495
0.455,0.0225,-4.4688,0.0308,-9.2437,9.8739,-4.0616,37.9,99898.0,,,,,,,
0.46,,,,,,,,,31.271,9.978,0.072,-0.651,-0.018,9.65,74.467
0.465,-0.1641,-4.5229,-0.4556,-17.2269,7.0028,-5.6022,37.9,99877.0,,,,,,,
0.47,,,,,,,,,32.024,9.979,0.064,-0.641,-0.021,9.81,75.043
0.475,-0.0835,-4.5137,-0.1152,-17.0168,14.3557,-1.3305,37.9,99878.0,,,,,,,
0.48,,,,,,,,,32.78,9.979,0.05,-0.635,-0.027,9.9,75.336
0.485,0.0322,-4.5386,0.0742,10.3641,31.5826,-1.9608,38.0,99908.0,,,,,,,
0.49,,,,,,,,,33.537,9.98,0.035,-0.621,-0.028,10.07,75.459
0.495,0.0654,-4.7021,0.2983,16.8067,34.3838,0.7703,37.9,99874.0,,,,,,,
0.5,,,,,,,,,34.301,9.982,0.045,-0.593,-0.029,11.33,76.148
0.505,-0.0854,-4.665,0.0874,0.7003,17.9272,1.6106,37.9,99858.0,,,,,,,
0.51,,,,,,,,,35.07,9.983,0.06,-0.562,-0.027,11.33,76.601
0.515,0.0264,-4.6636,0.064,-0.07,3.9916,-3.9216,37.9,99858.0,,,,,,,
0.52,,,,,,,,,35.847,9.984,0.061,-0.546,-0.025,12.17,77.47
0.525,0.0049,-4.623,0.0938,-0.6303,-4.3417,-2.7311,37.9,99883.0,,,,,,,
0.53,,,,,,,,,36.626,9.985,0.061,-0.542,-0.028,13.86,77.649
0.535,-0.0747,-4.6519,0.0757,0.1401,-8.1232,-0.2801,37.9,99879.0,,,,,,,
0.54,,,,,,,,,37.408,9.984,0.061,-0.545,-0.03,13.86,77.951
0.545,0.0176,-4.6045,0.1216,0.8403,-6.5826,-0.2801,37.9,99867.0,,,,,,,
0.55,,,,,,,,,38.207,9.984,0.062,-0.551,-0.03,13.86,79.585
0.555,-0.0576,-4.6611,0.0327,0.5602,-9.944,-0.2801,37.9,99869.0,,,,,,,
0.56,,,,,,,,,39.005,9.984,0.063,-0.556,-0.03,13.94,79.585
0.565,-0.0249,-4.7549,0.1113,1.8908,-9.1036,1.0504,37.9,99823.0,,,,,,,
0.57,,,,,,,,,39.809,9.983,0.063,-0.564,-0.029,14.19,80.142
0.575,-0.0142,-4.772,0.1074,1.8207,-10.2941,0.9104,37.9,99873.0,,,,,,,
0.58,,,,,,,,,40.615,9.983,0.065,-0.571,-0.028,14.61,80.321
0.585,-0.0332,-4.833,0.0967,2.451,-12.395,1.0504,38.0,99850.0,,,,,,,
0.59,,,,,,,,,41.421,9.982,0.067,-0.579,-0.027,14.61,80.368
0.595,-0.0454,-4.7363,0.0815,2.451,-12.9552,1.8908,37.9,99839.0,,,,,,,
0.6,,,,,,,,,42.227,9.982,0.069,-0.589,-0.025,14.78,80.368
0.605,-0.0273,-4.7412,0.0942,3.0112,-13.7255,1.7507,37.9,99836.0,,,,,,,
0.61,,,,,,,,,43.033,9.981,0.072,-0.6,-0.023,14.78,80.368
0.615,-0.0474,-4.7939,0.0825,3.5714,-16.1765,2.0308,37.9,99873.0,,,,,,,
0.62,,,,,,,,,43.854,9.98,0.074,-0.611,-0.021,14.78,81.775
0.625,-0.0278,-4.7632,0.0771,3.7115,-16.8768,2.381,37.9,99823.0,,,,,,,
0.63,,,,,,,,,44.674,9.98,0.078,-0.625,-0.019,14.78,81.87
0.635,-0.0317,-4.8643,0.0996,4.4818,-18.6275,2.591,37.9,99838.0,,,,,,,
0.64,,,,,,,,,45.498,9.979,0.081,-0.638,-0.016,16.21,82.134
0.645,-0.0347,-4.9331,0.0972,4.6919,-20.5882,3.0812,37.9,99834.0,,,,,,,
0.65,,,,,,,,,46.324,9.978,0.085,-0.654,-0.014,17.14,82.294
0.655,-0.0391,-4.915,0.0913,4.6218,-21.9188,2.8711,37.9,99831.0,,,,,,,
0.66,,,,,,,,,47.151,9.977,0.089,-0.671,-0.01,17.23,82.464
0.665,-0.0249,-4.8613,0.1035,5.2521,-22.1989,3.5014,37.9,99829.0,,,,,,,
0.67,,,,,,,,,47.982,9.975,0.093,-0.689,-0.007,17.23,82.889
0.675,-0.04,-4.8325,0.0918,5.3221,-23.5294,3.7815,38.0,99828.0,,,,,,,
0.68,,,,,,,,,48.821,9.974,0.098,-0.708,-0.004,17.39,83.645
0.685,-0.0308,-4.8213,0.0854,5.8123,-24.2297,4.1317,37.9,99809.0,,,,,,,
0.69,,,,,,,,,49.659,9.972,0.103,-0.728,0.0,17.56,83.635
0.695,-0.0352,-4.7954,0.0894,6.3025,-26.3305,4.2017,37.9,99815.0,,,,,,,
0.7,,,,,,,,,50.498,9.971,0.108,-0.748,0.003,17.81,83.635
0.705,-0.0483,-4.8032,0.0781,6.5126,-28.0112,4.6919,38.0,99812.0,,,,,,,
0.71,,,,,,,,,51.336,9.969,0.113,-0.77,0.008,17.98,83.635
0.715,-0.0327,-4.833,0.0786,7.0028,-28.7815,4.6218,37.9,99797.0,,,,,,,
0.72,,,,,,,,,52.174,9.967,0.119,-0.794,0.012,18.07,83.635
0.725,-0.0503,-4.8545,0.0864,7.563,-30.3922,4.8319,37.9,99820.0,,,,,,,
0.73,,,,,,,,,53.013,9.965,0.125,-0.818,0.017,18.07,83.645
0.735,-0.0166,-4.8281,0.0562,7.1429,-30.9524,5.042,37.9,99798.0,,,,,,,
0.74,,,,,,,,,53.851,9.963,0.132,-0.844,0.022,18.74,83.645
0.745,-0.0435,-4.874,0.1357,10.2941,-31.6527,5.9524,37.9,99792.0,,,,,,,
0.75,,,,,,,,,54.689,9.961,0.138,-0.87,0.027,19.16,83.635
0.755,-0.0332,-4.8433,0.1187,7.7731,-34.8739,5.4622,37.9,99796.0,,,,,,,
0.76,,,,,,,,,55.527,9.958,0.147,-0.897,0.033,19.42,83.635
0.765,-0.0396,-4.8364,0.0674,7.3529,-35.7843,5.4622,37.9,99781.0,,,,,,,
0.77,,,,,,,,,56.365,9.955,0.153,-0.927,0.038,19.67,83.635
0.775,-0.0332,-4.9014,0.1289,9.5238,-37.8151,5.8123,37.9,99760.0,,,,,,,
0.78,,,,,,,,,57.203,9.952,0.16,-0.957,0.043,20.59,83.645
0.785,-0.0347,-4.877,0.0977,7.6331,-40.6863,5.9524,37.9,99801.0,,,,,,,
0.79,,,,,,,,,58.042,9.949,0.168,-0.989,0.049,20.68,83.711
0.795,-0.042,-4.9565,0.0845,7.9132,-41.1064,6.0924,37.9,99796.0,,,,,,,
0.8,,,,,,,,,58.882,9.945,0.175,-1.024,0.055,20.68,83.843
0.805,-0.0586,-4.8013,0.0938,8.9636,-43.6975,6.0224,37.9,99768.0,,,,,,,
0.81,,,,,,,,,59.723,9.941,0.181,-1.059,0.061,20.76,84.06
0.815,-0.0239,-4.8667,0.0889,7.563,-44.8179,6.1625,37.9,99745.0,,,,,,,
0.82,,,,,,,,,60.565,9.937,0.189,-1.096,0.066,20.76,84.06
0.825,-0.0454,-4.8955,0.0942,8.8936,-46.1485,6.4426,37.9,99733.0,,,,,,,
0.83,,,,,,,,,61.409,9.933,0.196,-1.134,0.072,21.1,84.296
0.835,-0.0312,-4.9092,0.1143,8.7535,-47.2689,6.2325,37.9,99736.0,,,,,,,
0.84,,,,,,,,,62.254,9.928,0.203,-1.173,0.078,22.03,84.438
0.845,-0.0493,-4.9106,0.0747,7.9832,-47.7591,6.5826,37.9,99729.0,,,,,,,
0.85,,,,,,,,,63.1,9.923,0.211,-1.213,0.084,23.12,84.494
0.855,-0.0469,-4.936,0.0986,8.7535,-48.6695,6.4426,37.9,99728.0,,,,,,,
0.86,,,,,,,,,63.95,9.918,0.218,-1.254,0.09,23.8,84.853
0.865,-0.0508,-4.9204,0.106,8.2633,-48.2493,6.5826,37.9,99721.0,,,,,,,
0.87,,,,,,,,,64.801,9.912,0.225,-1.296,0.096,25.06,84.966
0.875,-0.0503,-4.9136,0.0859,7.8431,-47.6891,6.7227,37.9,99713.0,,,,,,,
0.88,,,,,,,,,65.653,9.906,0.232,-1.337,0.103,25.82,85.118
0.885,-0.0303,-4.9238,0.0957,7.7731,-47.479,6.7227,37.9,99702.0,,,,,,,
0.89,,,,,,,,,66.505,9.901,0.239,-1.377,0.109,26.07,85.146
0.895,-0.0635,-4.9341,0.0923,7.6331,-48.1092,6.5826,37.9,99706.0,,,,,,,
0.9,,,,,,,,,67.358,9.895,0.245,-1.417,0.115,26.41,85.146
0.905,-0.04,-4.937,0.1016,7.563,-47.2689,6.4426,37.9,99689.0,,,,,,,
0.91,,,,,,,,,68.211,9.889,0.252,-1.458,0.121,26.49,85.203
0.915,-0.0469,-4.9341,0.0903,7.0028,-48.0392,6.7927,37.9,99662.0,,,,,,,
0.92,,,,,,,,,69.064,9.882,0.258,-1.498,0.127,27.09,85.335
0.925,-0.0259,-4.9404,0.085,6.9328,-48.0392,6.5826,37.9,99658.0,,,,,,,
0.93,,,,,,,,,69.919,9.876,0.264,-1.539,0.133,27.76,85.401
0.935,-0.0435,-4.9307,0.1006,6.9328,-48.6695,6.7227,37.9,99681.0,,,,,,,
0.94,,,,,,,,,70.776,9.869,0.27,-1.58,0.139,28.35,85.599
0.945,-0.0571,-4.8999,0.084,6.4426,-47.9692,6.7227,37.9,99667.0,,,,,,,
0.95,,,,,,,,,71.632,9.862,0.276,-1.621,0.145,28.69,85.599
0.955,-0.0518,-4.9033,0.0854,6.0924,-48.0392,6.7227,37.9,99651.0,,,,,,,
0.96,,,,,,,,,72.488,9.855,0.281,-1.662,0.151,29.78,85.533
0.965,-0.0347,-4.9287,0.1011,5.8123,-46.6387,6.6527,37.9,99661.0,,,,,,,
0.97,,,,,,,,,73.343,9.848,0.287,-1.702,0.157,30.46,85.533
0.975,-0.0464,-4.9253,0.0918,5.2521,-46.4986,6.9328,37.9,99622.0,,,,,,,
0.98,,,,,,,,,74.199,9.841,0.291,-1.742,0.163,31.64,85.533
0.985,-0.0513,-4.9209,0.0703,4.8319,-46.4286,6.5126,37.9,99661.0,,,,,,,
0.99,,,,,,,,,75.055,9.834,0.296,-1.781,0.169,32.06,85.533
0.995,-0.0405,-4.9302,0.0981,5.042,-45.7283,6.5126,37.9,99650.0,,,,,,,
1.0,,,,,,,,,75.91,9.826,0.3,-1.82,0.175,32.15,85.495
1.005,-0.0513,-4.9277,0.1011,4.0616,-46.4986,6.4426,37.9,99601.0,,,,,,,
1.01,,,,,,,,,76.764,9.819,0.304,-1.859,0.18,32.15,85.495
1.015,-0.0327,-4.9199,0.0752,2.8711,-46.0084,6.2325,37.9,99593.0,,,,,,,
1.02,,,,,,,,,77.618,9.811,0.307,-1.898,0.186,32.4,85.476
1.025,-0.0322,-4.9443,0.1196,3.3613,-48.3894,6.0924,37.9,99583.0,,,,,,,
1.03,,,,,,,,,78.472,9.803,0.31,-1.936,0.191,32.99,85.429
1.035,-0.0601,-4.9658,0.0894,1.9608,-49.2997,5.9524,37.9,99595.0,,,,,,,
1.04,,,,,,,,,79.325,9.795,0.313,-1.977,0.196,33.07,85.429
1.045,-0.0425,-4.9683,0.0767,1.4006,-49.5798,5.7423,37.9,99579.0,,,,,,,
1.05,,,,,,,,,80.18,9.786,0.314,-2.019,0.2,35.44,85.476
1.055,-0.0527,-4.9595,0.1025,1.9608,-49.3697,5.5322,37.9,99582.0,,,,,,,
1.06,,,,,,,,,81.034,9.778,0.316,-2.06,0.205,37.21,85.495
1.065,-0.062,-4.9062,0.0801,0.3501,-51.4006,5.4622,37.9,99577.0,,,,,,,
1.07,,,,,,,,,81.889,9.769,0.317,-2.102,0.209,37.71,85.524
1.075,-0.0234,-4.9199,0.0986,0.1401,-52.0308,5.042,37.9,99553.0,,,,,,,
1.08,,,,,,,,,82.744,9.759,0.318,-2.145,0.212,37.88,85.524
1.085,-0.0459,-4.9395,0.0986,0.0,-53.7815,4.7619,37.9,99560.0,,,,,,,
1.09,,,,,,,,,83.599,9.749,0.318,-2.189,0.216,38.73,85.524
1.095,-0.0361,-4.9263,0.0859,-1.1905,-54.0616,4.972,37.9,99564.0,,,,,,,
1.1,,,,,,,,,84.454,9.739,0.319,-2.234,0.219,38.81,85.703
1.105,-0.0435,-4.9307,0.0884,-0.9804,-54.1317,4.5518,37.9,99529.0,,,,,,,
1.11,,,,,,,,,85.31,9.728,0.318,-2.279,0.222,39.06,85.703
1.115,-0.0518,-4.8994,0.0815,-1.2605,-54.4118,4.6919,37.9,99505.0,,,,,,,
1.12,,,,,,,,,86.165,9.718,0.317,-2.324,0.225,39.23,85.703
1.125,-0.0518,-4.9067,0.0728,-1.6106,-54.2017,4.6919,37.9,99541.0,,,,,,,
1.13,,,,,,,,,87.019,9.707,0.317,-2.37,0.227,40.33,85.533
1.135,-0.043,-4.915,0.0732,-1.4006,-55.042,3.9916,37.9,99511.0,,,,,,,
1.14,,,,,,,,,87.871,9.695,0.316,-2.415,0.23,40.67,85.448
1.145,-0.0239,-4.9868,0.0928,-1.8908,-56.9328,4.2717,37.9,99484.0,,,,,,,
1.15,,,,,,,,,88.722,9.684,0.315,-2.461,0.232,41.26,85.325
1.155,-0.0435,-4.7783,0.0869,-2.7311,-59.8739,4.0616,37.9,99489.0,,,,,,,
1.16,,,,,,,,,89.573,9.672,0.314,-2.509,0.234,42.27,85.325
1.165,-0.0571,-4.9619,0.0674,-2.6611,-61.2745,3.4314,37.9,99532.0,,,,,,,
1.17,,,,,,,,,90.424,9.659,0.312,-2.559,0.236,43.29,85.325
1.175,-0.0615,-4.936,0.0894,-3.8515,-62.9552,3.4314,37.9,99465.0,,,,,,,
1.18,,,,,,,,,91.276,9.645,0.31,-2.61,0.237,43.29,85.448
1.185,-0.0322,-4.9531,0.0869,-3.8515,-65.3361,2.9412,37.9,99466.0,,,,,,,
1.19,,,,,,,,,92.127,9.631,0.308,-2.662,0.238,44.81,85.448
1.195,-0.0459,-4.9517,0.0898,-3.9216,-66.8067,2.451,37.9,99451.0,,,,,,,
1.2,,,,,,,,,92.98,9.616,0.305,-2.716,0.238,45.31,85.533
1.205,-0.0308,-4.9189,0.0903,-4.6919,-67.7171,3.0812,37.9,99483.0,,,,,,,
1.21,,,,,,,,,93.833,9.6,0.303,-2.772,0.238,46.67,85.637
1.215,-0.0415,-4.9204,0.0991,-4.7619,-70.2381,2.591,37.9,99443.0,,,,,,,
1.22,,,,,,,,,94.687,9.584,0.3,-2.828,0.238,47.09,85.637
1.225,-0.0542,-4.9102,0.0854,-5.2521,-72.0588,2.9412,37.9,99429.0,,,,,,,
1.23,,,,,,,,,95.539,9.566,0.297,-2.886,0.238,47.17,85.637
1.235,-0.0562,-4.8657,0.063,-5.8123,-71.9188,3.0112,37.9,99435.0,,,,,,,
1.24,,,,,,,,,96.392,9.548,0.294,-2.945,0.237,48.61,85.637
1.245,-0.0464,-4.8657,0.0962,-5.2521,-72.6891,2.6611,37.9,99422.0,,,,,,,
1.25,,,,,,,,,97.241,9.53,0.29,-3.005,0.237,48.69,85.335
1.255,-0.0215,-4.8755,0.0947,-6.0924,-72.1989,2.7311,37.9,99418.0,,,,,,,
1.26,,,,,,,,,98.09,9.511,0.286,-3.065,0.236,49.88,85.335
1.265,-0.0513,-4.8799,0.0645,-6.1625,-74.5798,2.591,37.9,99393.0,,,,,,,
1.27,,,,,,,,,98.939,9.492,0.282,-3.124,0.236,50.55,85.306
1.275,-0.0371,-4.8687,0.1074,-5.7423,-75.4902,2.591,37.9,99419.0,,,,,,,
1.28,,,,,,,,,99.785,9.472,0.278,-3.185,0.235,51.23,85.136
1.285,-0.0552,-4.8706,0.0801,-6.6527,-76.3305,2.591,37.9,99418.0,,,,,,,
1.29,,,,,,,,,100.626,9.451,0.274,-3.247,0.234,51.74,84.551
1.295,-0.0449,-4.8774,0.0767,-6.3725,-76.4706,2.7311,37.9,99402.0,,,,,,,
1.3,,,,,,,,,101.465,9.429,0.27,-3.309,0.233,52.33,84.466
1.305,-0.0415,-4.8555,0.0972,-6.0224,-75.8403,2.8711,37.9,99388.0,,,,,,,
1.31,,,,,,,,,102.303,9.407,0.265,-3.372,0.232,52.58,84.466
1.315,-0.0605,-4.8457,0.0649,-6.5826,-75.9804,3.0812,37.9,99369.0,,,,,,,
1.32,,,,,,,,,103.14,9.385,0.261,-3.433,0.232,52.66,84.372
1.325,-0.0342,-4.8408,0.0884,-5.8123,-73.8796,3.0112,37.9,99353.0,,,,,,,
1.33,,,,,,,,,103.976,9.362,0.257,-3.495,0.231,52.66,84.334
1.335,-0.0562,-4.8472,0.0923,-5.9524,-74.3697,3.2213,37.9,99384.0,,,,,,,
1.34,,,,,,,,,104.812,9.34,0.253,-3.555,0.23,54.02,84.334
1.345,-0.019,-4.814,0.1094,-5.5322,-72.9692,3.2213,37.9,99358.0,,,,,,,
1.35,,,,,,,,,105.647,9.317,0.248,-3.615,0.23,54.78,84.334
1.355,-0.0679,-4.8062,0.0732,-5.7423,-73.0392,3.5014,37.9,99356.0,,,,,,,
1.36,,,,,,,,,106.479,9.294,0.244,-3.673,0.23,55.2,84.079
1.365,-0.0288,-4.8125,0.0747,-5.2521,-71.0784,3.4314,37.9,99322.0,,,,,,,
1.37,,,,,,,,,107.309,9.271,0.24,-3.732,0.23,55.54,83.918
1.375,-0.0586,-4.8027,0.084,-4.902,-70.098,4.0616,37.9,99338.0,,,,,,,
1.38,,,,,,,,,108.139,9.248,0.236,-3.789,0.23,56.81,83.89
1.385,-0.0518,-4.8066,0.0859,-4.5518,-69.4678,3.7115,37.9,99338.0,,,,,,,
1.39,,,,,,,,,108.968,9.225,0.233,-3.845,0.231,57.74,83.796
1.395,-0.0273,-4.8008,0.1099,-4.0616,-67.437,4.1317,37.9,99332.0,,,,,,,
1.4,,,,,,,,,109.79,9.202,0.229,-3.9,0.231,57.91,83.276
1.405,-0.0562,-4.7866,0.0522,-4.3417,-67.0868,4.0616,37.9,99302.0,,,,,,,
1.41,,,,,,,,,110.612,9.179,0.226,-3.954,0.232,58.16,83.248
1.415,-0.0488,-4.7769,0.0884,-3.1513,-65.8263,3.7115,37.9,99303.0,,,,,,,
1.42,,,,,,,,,111.432,9.156,0.223,-4.007,0.233,59.43,83.135
1.425,-0.0454,-4.7739,0.1104,-3.2213,-64.2857,4.2017,37.9,99271.0,,,,,,,
1.43,,,,,,,,,112.251,9.133,0.22,-4.059,0.234,59.43,83.125
1.435,-0.0464,-4.7686,0.0669,-3.3613,-64.6359,3.7115,37.9,99263.0,,,,,,,
1.44,,,,,,,,,113.069,9.11,0.218,-4.109,0.236,59.94,83.059
1.445,-0.0439,-4.7905,0.1118,-2.451,-64.2157,3.9916,37.9,99270.0,,,,,,,
1.45,,,,,,,,,113.886,9.087,0.215,-4.16,0.237,60.78,83.021
1.455,-0.0234,-4.79,0.1152,-2.591,-64.0756,4.0616,37.9,99248.0,,,,,,,
1.46,,,,,,,,,114.701,9.064,0.213,-4.21,0.238,62.39,82.823
1.465,-0.0337,-4.791,0.0854,-2.1008,-65.2661,3.9916,37.9,99234.0,,,,,,,
1.47,,,,,,,,,115.515,9.041,0.211,-4.26,0.24,62.47,82.814
1.475,-0.0605,-4.8164,0.0908,-1.4706,-65.1961,4.4118,37.9,99251.0,,,,,,,
1.48,,,,,,,,,116.33,9.017,0.209,-4.311,0.242,65.1,82.814
1.485,-0.0205,-4.8057,0.1211,-1.2605,-64.7759,3.8515,37.9,99230.0,,,,,,,
1.49,,,,,,,,,117.144,8.992,0.208,-4.362,0.244,65.18,82.814
1.495,-0.0684,-4.7637,0.0723,-0.4902,-64.0056,4.2717,37.9,99208.0,,,,,,,
1.5,,,,,,,,,117.957,8.968,0.207,-4.412,0.246,65.78,82.814
1.505,-0.0649,-4.7676,0.0933,-0.07,-63.7255,3.3613,37.9,99191.0,,,,,,,
1.51,,,,,,,,,118.77,8.943,0.206,-4.461,0.248,66.79,82.814
1.515,-0.0269,-4.7573,0.1001,0.6303,-62.465,2.8711,37.9,99159.0,,,,,,,
1.52,,,,,,,,,119.582,8.918,0.207,-4.51,0.25,67.04,82.814
1.525,-0.0596,-4.7627,0.1099,1.2605,-64.0756,2.8011,37.9,99186.0,,,,,,,
1.53,,,,,,,,,120.394,8.894,0.207,-4.558,0.252,68.23,82.814
1.535,-0.0361,-4.731,0.0874,1.1204,-64.2857,1.6807,37.9,99178.0,,,,,,,
1.54,,,,,,,,,121.205,8.869,0.209,-4.607,0.254,68.57,82.814
1.545,-0.0576,-4.7266,0.0938,2.0308,-63.7255,1.6106,37.9,99175.0,,,,,,,
1.55,,,,,,,,,122.011,8.843,0.21,-4.656,0.255,70.43,82.379
1.555,-0.0723,-4.7295,0.1045,2.3109,-62.6751,1.2605,37.9,99155.0,,,,,,,
1.56,,,,,,,,,122.817,8.817,0.213,-4.705,0.257,71.87,82.304
1.565,-0.0293,-4.7173,0.0728,2.1709,-61.5546,0.5602,37.9,99127.0,,,,,,,
1.57,,,,,,,,,123.622,8.792,0.216,-4.752,0.258,72.29,82.285
1.575,-0.0684,-4.7065,0.0854,3.7815,-60.6443,0.4202,37.9,99127.0,,,,,,,
1.58,,,,,,,,,124.425,8.766,0.218,-4.799,0.258,72.97,82.181
1.585,-0.0342,-4.7065,0.0815,3.2913,-59.8039,-0.07,37.9,99092.0,,,,,,,
1.59,,,,,,,,,125.222,8.741,0.223,-4.844,0.26,73.23,81.671
1.595,-0.0298,-4.6924,0.0771,2.8711,-58.4034,-0.2801,37.9,99082.0,,,,,,,
1.6,,,,,,,,,126.019,8.716,0.227,-4.889,0.26,74.58,81.643
1.605,-0.062,-4.7095,0.1123,4.5518,-58.8936,-0.5602,37.9,99062.0,,,,,,,
1.61,,,,,,,,,126.813,8.691,0.23,-4.932,0.261,74.92,81.586
1.615,-0.0381,-4.7085,0.0845,3.1513,-57.7731,-1.1204,37.9,99067.0,,,,,,,
1.62,,,,,,,,,127.607,8.666,0.235,-4.976,0.262,77.29,81.407
1.625,-0.061,-4.6968,0.0742,3.7815,-58.3333,-0.7703,37.9,99074.0,,,,,,,
1.63,,,,,,,,,128.398,8.641,0.24,-5.019,0.262,77.29,81.256
1.635,-0.0293,-4.7036,0.1177,4.4118,-57.0028,-1.9608,37.9,99061.0,,,,,,,
1.64,,,,,,,,,129.19,8.616,0.244,-5.062,0.262,80.26,81.237
1.645,-0.0557,-4.6626,0.0718,3.0112,-57.493,-1.6106,37.9,99045.0,,,,,,,
1.65,,,,,,,,,129.98,8.591,0.25,-5.104,0.262,81.11,81.199
1.655,-0.043,-4.6543,0.0996,4.2017,-55.5322,-1.8908,37.9,99035.0,,,,,,,
1.66,,,,,,,,,130.77,8.565,0.254,-5.147,0.261,81.78,81.199
1.665,-0.0288,-4.6636,0.0972,4.4118,-55.2521,-2.2409,37.9,99010.0,,,,,,,
1.67,,,,,,,,,131.559,8.541,0.259,-5.187,0.261,82.38,81.143
1.675,-0.0347,-4.6548,0.0845,3.5014,-57.2129,-1.8908,37.9,99007.0,,,,,,,
1.68,,,,,,,,,132.345,8.516,0.265,-5.228,0.26,82.8,81.01
1.685,-0.0366,-4.6685,0.0737,4.6218,-56.3725,-2.451,37.9,98999.0,,,,,,,
1.69,,,,,,,,,133.128,8.49,0.27,-5.269,0.26,82.88,80.925
1.695,-0.0415,-4.6641,0.0903,4.4818,-55.112,-2.3109,37.9,99002.0,,,,,,,
1.7,,,,,,,,,133.907,8.464,0.276,-5.31,0.259,84.24,80.463
1.705,-0.0693,-4.6416,0.0757,3.7815,-53.8515,-2.1709,37.9,98974.0,,,,,,,
1.71,,,,,,,,,134.684,8.439,0.281,-5.35,0.259,85.09,80.378
1.715,-0.0605,-4.6348,0.0957,4.6218,-53.9916,-3.2913,37.9,98976.0,,,,,,,
1.72,,,,,,,,,135.461,8.414,0.286,-5.389,0.258,87.21,80.368
1.725,-0.0391,-4.6191,0.1006,3.7815,-53.0112,-3.4314,37.9,98953.0,,,,,,,
1.73,,,,,,,,,136.237,8.389,0.293,-5.427,0.257,87.46,80.349
1.735,-0.0654,-4.6113,0.0581,3.9216,-52.521,-3.7115,37.9,98934.0,,,,,,,
1.74,,,,,,,,,137.01,8.364,0.298,-5.465,0.256,87.89,80.198
1.745,-0.0444,-4.6045,0.0747,4.5518,-52.3109,-4.3417,37.9,98936.0,,,,,,,
1.75,,,,,,,,,137.781,8.34,0.304,-5.503,0.254,88.14,80.189
1.755,-0.0557,-4.5952,0.1025,3.4314,-52.8711,-3.7115,37.9,98929.0,,,,,,,
1.76,,,,,,,,,138.551,8.315,0.311,-5.54,0.252,90.09,79.943
1.765,-0.061,-4.5869,0.0854,3.5714,-51.0504,-4.0616,37.9,98891.0,,,,,,,
1.77,,,,,,,,,139.317,8.289,0.316,-5.577,0.25,90.26,79.811
1.775,-0.0483,-4.5679,0.0762,2.9412,-50.2101,-4.3417,37.9,98913.0,,,,,,,
1.78,,,,,,,,,140.08,8.265,0.322,-5.614,0.248,92.05,79.509
1.785,-0.0488,-4.5605,0.0732,2.451,-46.8487,-3.7815,37.9,98891.0,,,,,,,
1.79,,,,,,,,,140.842,8.241,0.327,-5.649,0.246,93.49,79.358
1.795,-0.0483,-4.5596,0.064,2.8011,-49.0896,-4.2017,37.9,98870.0,,,,,,,
1.8,,,,,,,,,141.6,8.218,0.332,-5.682,0.243,93.66,79.226
1.805,-0.0718,-4.5352,0.0757,2.381,-50.2801,-3.8515,37.9,98863.0,,,,,,,
1.81,,,,,,,,,142.355,8.194,0.337,-5.716,0.241,94.08,79.047
1.815,-0.0762,-4.5176,0.0698,1.4706,-48.5294,-3.5014,37.9,98866.0,,,,,,,
1.82,,,,,,,,,143.108,8.169,0.342,-5.751,0.238,95.44,78.886
1.825,-0.0386,-4.52,0.0879,1.6807,-47.409,-3.0812,37.9,98870.0,,,,,,,
1.83,,,,,,,,,143.858,8.145,0.345,-5.785,0.236,97.31,78.518
1.835,-0.0635,-4.5049,0.0825,1.0504,-49.0896,-3.3613,37.9,98844.0,,,,,,,
1.84,,,,,,,,,144.604,8.122,0.349,-5.818,0.233,97.31,78.376
1.845,-0.0527,-4.4897,0.0459,0.3501,-46.9188,-2.451,37.9,98833.0,,,,,,,
1.85,,,,,,,,,145.35,8.097,0.353,-5.852,0.231,99.09,78.357
1.855,-0.0581,-4.4971,0.0566,1.4006,-45.4482,-2.0308,37.9,98820.0,,,,,,,
1.86,,,,,,,,,146.089,8.074,0.355,-5.884,0.228,99.09,77.885
1.865,-0.0586,-4.4717,0.1001,0.7703,-45.7983,-1.9608,37.9,98784.0,,,,,,,
1.87,,,,,,,,,146.824,8.051,0.358,-5.915,0.227,99.43,77.592
1.875,-0.0479,-4.4717,0.0728,-0.4902,-44.888,-1.3305,37.9,98787.0,,,,,,,
1.88,,,,,,,,,147.556,8.027,0.36,-5.947,0.225,99.68,77.545
1.885,-0.0654,-4.4409,0.0503,0.2801,-45.7283,-0.9804,37.9,98808.0,,,,,,,
1.89,,,,,,,,,148.285,8.005,0.362,-5.978,0.223,101.3,77.3
1.895,-0.0322,-4.4873,0.0659,-0.2101,-45.7283,-0.3501,37.9,98758.0,,,,,,,
1.9,,,,,,,,,149.012,7.981,0.363,-6.009,0.221,102.23,77.149
1.905,-0.0371,-4.5195,0.0928,-1.0504,-46.3585,0.1401,37.9,98764.0,,,,,,,
1.91,,,,,,,,,149.737,7.957,0.364,-6.04,0.22,103.34,77.007
1.915,-0.0811,-4.5171,0.0503,-0.9104,-44.5378,0.9804,37.9,98774.0,,,,,,,
1.92,,,,,,,,,150.46,7.933,0.364,-6.072,0.219,104.36,77.007
1.925,-0.0547,-4.4956,0.0669,-1.3305,-45.4482,1.0504,37.9,98720.0,,,,,,,
1.93,,,,,,,,,151.184,7.91,0.364,-6.102,0.218,106.14,77.007
1.935,-0.0732,-4.4214,0.0698,-2.1709,-46.2185,1.8908,37.9,98722.0,,,,,,,
1.94,,,,,,,,,151.905,7.886,0.363,-6.133,0.217,106.39,77.007
1.945,-0.0439,-4.4248,0.0781,-1.7507,-42.6471,2.1008,37.9,98721.0,,,,,,,
1.95,,,,,,,,,152.625,7.862,0.362,-6.164,0.216,107.24,76.96
1.955,-0.0669,-4.4092,0.0898,-2.6611,-45.098,1.1905,37.9,98712.0,,,,,,,
1.96,,,,,,,,,153.34,7.84,0.36,-6.193,0.216,108.09,76.658
1.965,-0.0967,-4.3623,0.0649,-3.3613,-45.5182,1.8908,37.9,98691.0,,,,,,,
1.97,,,,,,,,,154.054,7.816,0.358,-6.223,0.214,108.6,76.658
1.975,-0.0649,-4.3716,0.0576,-2.1008,-43.2773,2.1709,37.9,98700.0,,,,,,,
1.98,,,,,,,,,154.763,7.791,0.356,-6.253,0.213,111.66,76.063
1.985,-0.082,-4.3711,0.0527,-2.8711,-44.8179,1.6807,37.9,98673.0,,,,,,,
1.99,,,,,,,,,155.467,7.768,0.354,-6.282,0.212,111.75,75.751
1.995,-0.0713,-4.3511,0.0596,-2.6611,-44.3978,2.381,37.9,98655.0,,,,,,,
2.0,,,,,,,,,156.167,7.744,0.352,-6.312,0.211,111.83,75.685
2.005,-0.0635,-4.3481,0.0659,-2.1008,-43.6275,1.8908,37.9,98675.0,,,,,,,
2.01,,,,,,,,,156.864,7.72,0.35,-6.342,0.21,112.51,75.449
2.015,-0.0771,-4.3291,0.0444,-2.1008,-44.1176,2.2409,37.9,98654.0,,,,,,,
2.02,,,,,,,,,157.552,7.696,0.348,-6.371,0.21,113.53,74.722
2.025,-0.0703,-4.3159,0.0757,-0.7703,-42.9972,2.7311,37.9,98612.0,,,,,,,
2.03,,,,,,,,,158.238,7.672,0.346,-6.4,0.209,114.3,74.713
2.035,-0.0288,-4.2998,0.0801,-1.6106,-41.1765,2.2409,37.9,98624.0,,,,,,,
2.04,,,,,,,,,158.922,7.649,0.345,-6.428,0.21,115.66,74.543
2.045,-0.0742,-4.2759,0.061,0.1401,-42.8571,3.4314,37.9,98592.0,,,,,,,
2.05,,,,,,,,,159.601,7.626,0.343,-6.455,0.21,115.83,74.326
2.055,-0.0464,-4.3047,0.0894,0.4902,-41.7367,3.2913,37.9,98592.0,,,,,,,
2.06,,,,,,,,,160.279,7.602,0.342,-6.483,0.211,117.36,74.269
2.065,-0.0415,-4.2637,0.0688,0.4202,-42.3669,3.2913,37.9,98577.0,,,,,,,
2.07,,,,,,,,,160.951,7.579,0.341,-6.51,0.213,117.45,73.901
2.075,-0.0869,-4.2646,0.0464,1.8207,-41.6667,3.9916,37.9,98576.0,,,,,,,
2.08,,,,,,,,,161.621,7.555,0.341,-6.538,0.215,120.0,73.646
2.085,-0.0332,-4.2476,0.0815,1.9608,-41.7367,3.3613,37.9,98567.0,,,,,,,
2.09,,,,,,,,,162.288,7.532,0.34,-6.564,0.218,121.02,73.429
2.095,-0.0264,-4.2417,0.0737,1.5406,-43.4174,3.3613,37.9,98555.0,,,,,,,
2.1,,,,,,,,,162.953,7.508,0.34,-6.591,0.221,122.72,73.334
2.105,-0.0562,-4.2295,0.0923,2.8711,-43.6275,4.2717,37.9,98526.0,,,,,,,
2.11,,,,,,,,,163.611,7.484,0.34,-6.619,0.223,122.72,72.872
2.115,-0.0356,-4.1953,0.0903,3.2913,-44.2577,3.1513,37.9,98536.0,,,,,,,
2.12,,,,,,,,,164.265,7.459,0.34,-6.647,0.227,124.0,72.654
2.125,-0.0894,-4.1738,0.0352,3.4314,-43.1373,3.9916,37.9,98525.0,,,,,,,
2.13,,,,,,,,,164.917,7.433,0.342,-6.675,0.23,124.08,72.636
2.135,-0.0493,-4.1924,0.0771,4.4818,-41.8067,3.4314,37.9,98489.0,,,,,,,
2.14,,,,,,,,,165.563,7.409,0.342,-6.703,0.234,124.85,72.324
2.145,-0.0044,-4.1807,0.1162,5.3922,-43.1373,1.7507,37.9,98489.0,,,,,,,
2.15,,,,,,,,,166.207,7.384,0.344,-6.729,0.238,125.87,72.211
2.155,-0.0557,-4.1846,0.0801,6.0924,-44.2577,2.3109,37.9,98465.0,,,,,,,
2.16,,,,,,,,,166.848,7.359,0.347,-6.756,0.241,127.49,71.975
2.165,-0.0562,-4.145,0.0718,6.3025,-45.3081,0.9804,37.9,98449.0,,,,,,,
2.17,,,,,,,,,167.481,7.333,0.351,-6.784,0.245,128.34,71.314
2.175,-0.0615,-4.1304,0.0527,6.5826,-44.5378,0.4902,37.9,98440.0,,,,,,,
2.18,,,,,,,,,168.109,7.307,0.355,-6.812,0.249,128.42,71.257
2.185,-0.0664,-4.1309,0.0674,7.0028,-44.6078,0.0,37.9,98429.0,,,,,,,
2.19,,,,,,,,,168.739,7.281,0.36,-6.84,0.252,131.49,71.106
2.195,-0.0371,-4.1094,0.061,6.9328,-45.7283,-1.5406,37.9,98408.0,,,,,,,
2.2,,,,,,,,,169.364,7.254,0.365,-6.868,0.256,131.49,71.03
2.205,-0.0371,-4.127,0.0811,7.423,-46.9888,-1.2605,37.9,98436.0,,,,,,,
2.21,,,,,,,,,169.988,7.227,0.372,-6.896,0.258,133.53,70.898
2.215,-0.0483,-4.1201,0.0586,8.0532,-47.619,-2.381,37.8,98400.0,,,,,,,
2.22,,,,,,,,,170.605,7.199,0.378,-6.925,0.261,134.9,70.341
2.225,-0.0352,-4.0688,0.0728,7.423,-49.4398,-3.1513,37.9,98384.0,,,,,,,
2.23,,,,,,,,,171.218,7.17,0.385,-6.954,0.263,135.66,70.067
2.235,-0.0239,-4.0859,0.0703,6.7227,-50.5602,-2.9412,37.9,98362.0,,,,,,,
2.24,,,,,,,,,171.827,7.141,0.393,-6.984,0.264,136.01,70.058
2.245,-0.0283,-4.0718,0.0718,7.493,-47.549,-2.7311,37.9,98347.0,,,,,,,
2.25,,,,,,,,,172.434,7.11,0.4,-7.014,0.265,136.6,69.992
2.255,-0.0679,-4.0522,0.02,5.8824,-50.0,-3.3613,37.9,98352.0,,,,,,,
2.26,,,,,,,,,173.039,7.081,0.408,-7.043,0.267,138.39,69.86
2.265,-0.0571,-4.0259,0.0449,5.8824,-52.451,-3.9216,37.9,98334.0,,,,,,,
2.27,,,,,,,,,173.639,7.051,0.414,-7.073,0.268,139.07,69.652
2.275,-0.0527,-4.0171,0.0396,5.4622,-51.4706,-3.2913,37.8,98322.0,,,,,,,
2.28,,,,,,,,,174.234,7.019,0.421,-7.104,0.267,140.44,69.199
2.285,-0.0317,-4.0068,0.0698,4.5518,-52.7311,-3.7115,37.9,98309.0,,,,,,,
2.29,,,,,,,,,174.826,6.987,0.428,-7.135,0.267,142.31,68.925
2.295,-0.0498,-3.9878,0.0415,2.8711,-52.591,-3.5714,37.9,98301.0,,,,,,,
2.3,,,,,,,,,175.415,6.955,0.434,-7.166,0.267,143.16,68.868
2.305,-0.104,-3.9697,0.0513,2.6611,-53.5714,-3.2913,37.8,98299.0,,,,,,,
2.31,,,,,,,,,175.999,6.922,0.439,-7.197,0.265,143.59,68.547
2.315,-0.0327,-3.9277,0.063,1.8207,-51.4006,-3.9216,37.8,98298.0,,,,,,,
2.32,,,,,,,,,176.575,6.889,0.444,-7.229,0.263,144.7,68.037
2.325,-0.0952,-3.937,0.0166,1.0504,-52.521,-3.0112,37.9,98286.0,,,,,,,
2.33,,,,,,,,,177.148,6.857,0.449,-7.259,0.26,145.72,67.867
2.335,-0.0449,-3.938,0.0449,-0.2801,-51.7507,-3.2913,37.9,98296.0,,,,,,,
2.34,,,,,,,,,177.717,6.824,0.452,-7.29,0.258,146.83,67.669
2.345,-0.0557,-3.9185,0.0459,-0.7003,-53.0112,-3.4314,37.9,98280.0,,,,,,,
2.35,,,,,,,,,178.28,6.792,0.455,-7.32,0.254,147.51,67.301
2.355,-0.0723,-3.9287,0.0317,0.1401,-49.0896,-2.3109,37.9,98280.0,,,,,,,
2.36,,,,,,,,,178.837,6.759,0.458,-7.351,0.25,147.68,66.952
2.365,-0.0439,-3.9146,0.0352,-1.1905,-48.0392,-2.451,37.9,98297.0,,,,,,,
2.37,,,,,,,,,179.383,6.728,0.461,-7.379,0.247,147.77,66.338
2.375,-0.0615,-3.877,0.0435,-1.0504,-45.7983,-1.6807,37.9,98258.0,,,,,,,
2.38,,,,,,,,,179.925,6.697,0.463,-7.406,0.244,147.86,66.319
2.385,-0.0972,-3.8643,0.0054,-0.8403,-46.4286,-0.9804,37.9,98258.0,,,,,,,
2.39,,,,,,,,,180.462,6.668,0.464,-7.433,0.241,147.94,66.158
2.395,-0.0771,-3.8467,0.0176,-1.5406,-45.3081,-1.0504,37.9,98227.0,,,,,,,
2.4,,,,,,,,,180.997,6.639,0.465,-7.459,0.238,148.79,66.14
2.405,-0.0127,-3.835,0.0947,-0.5602,-45.3782,-0.4202,37.9,98259.0,,,,,,,
2.41,,,,,,,,,181.527,6.61,0.466,-7.485,0.235,149.31,65.96
2.415,-0.0977,-3.8022,-0.0015,-1.7507,-47.549,0.5602,37.9,98262.0,,,,,,,
2.42,,,,,,,,,182.052,6.581,0.466,-7.51,0.233,149.31,65.885
2.425,-0.0576,-3.811,-0.001,-2.3109,-48.4594,0.9104,37.9,98249.0,,,,,,,
2.43,,,,,,,,,182.569,6.55,0.466,-7.537,0.231,150.84,65.158
2.435,-0.0293,-3.7998,0.0811,-0.7703,-48.5994,0.9804,37.9,98230.0,,,,,,,
2.44,,,,,,,,,183.079,6.519,0.465,-7.564,0.229,151.1,64.912
2.445,-0.1079,-3.77,0.0205,-1.8207,-45.3782,2.1008,37.9,98216.0,,,,,,,
2.45,,,,,,,,,183.583,6.487,0.465,-7.591,0.227,151.18,64.572
2.455,-0.0796,-3.7402,0.002,-2.3109,-42.577,2.1709,37.9,98206.0,,,,,,,
2.46,,,,,,,,,184.08,6.458,0.463,-7.617,0.226,151.18,64.346
2.465,-0.0522,-3.7349,0.0703,-1.0504,-44.3277,2.1709,37.9,98217.0,,,,,,,
2.47,,,,,,,,,184.569,6.43,0.461,-7.64,0.224,151.95,63.883
2.475,-0.0767,-3.7183,0.0176,-1.9608,-43.4874,3.2213,37.9,98214.0,,,,,,,
2.48,,,,,,,,,185.057,6.401,0.46,-7.665,0.224,153.57,63.713
2.485,-0.0508,-3.7007,0.0312,-2.521,-44.958,2.1709,37.8,98182.0,,,,,,,
2.49,,,,,,,,,185.54,6.373,0.457,-7.689,0.223,153.83,63.666
2.495,-0.0537,-3.7007,0.0635,-0.5602,-44.1877,2.521,37.8,98191.0,,,,,,,
2.5,,,,,,,,,186.014,6.343,0.455,-7.713,0.221,154.68,63.09
2.505,-0.0586,-3.6611,0.0127,-2.451,-42.577,2.0308,37.9,98181.0,,,,,,,
2.51,,,,,,,,,186.479,6.314,0.454,-7.737,0.221,154.77,62.514
2.515,-0.0166,-3.6484,-0.0044,-0.9104,-40.5462,2.2409,37.8,98191.0,,,,,,,
2.52,,,,,,,,,186.939,6.286,0.452,-7.76,0.219,154.94,62.41
2.525,-0.0674,-3.6528,0.0293,1.4006,-42.7871,3.5014,37.9,98154.0,,,,,,,
2.53,,,,,,,,,187.393,6.259,0.45,-7.782,0.219,155.62,62.089
2.535,-0.0479,-3.6401,-0.0029,0.2101,-43.4174,2.1709,37.8,98149.0,,,,,,,
2.54,,,,,,,,,187.842,6.23,0.449,-7.805,0.221,156.9,61.749
2.545,-0.0488,-3.606,0.0083,1.4706,-42.3669,2.521,37.8,98133.0,,,,,,,
2.55,,,,,,,,,188.286,6.201,0.449,-7.828,0.221,156.9,61.749
2.555,-0.0474,-3.6309,0.0439,3.4314,-44.8179,2.6611,37.9,98131.0,,,,,,,
2.56,,,,,,,,,188.72,6.172,0.449,-7.851,0.222,157.67,60.984
2.565,-0.0083,-3.5854,0.0415,1.0504,-44.888,1.8908,37.9,98125.0,,,,,,,
2.57,,,,,,,,,189.148,6.142,0.449,-7.874,0.225,157.75,60.824
2.575,-0.0688,-3.5864,0.0107,1.9608,-47.619,2.521,37.9,98136.0,,,,,,,
2.58,,,,,,,,,189.576,6.112,0.449,-7.898,0.225,160.06,60.739
2.585,-0.0234,-3.543,0.0776,2.3109,-44.2577,1.8908,37.8,98095.0,,,,,,,
2.59,,,,,,,,,189.998,6.079,0.449,-7.923,0.226,160.49,60.578
2.595,-0.0566,-3.5186,0.0195,1.5406,-44.4678,1.6106,37.9,98086.0,,,,,,,
2.6,,,,,,,,,190.417,6.049,0.45,-7.946,0.228,161.6,60.399
2.605,-0.0635,-3.5063,0.0332,1.5406,-45.3782,2.0308,37.9,98068.0,,,,,,,
2.61,,,,,,,,,190.827,6.019,0.45,-7.969,0.229,161.86,59.917
2.615,-0.02,-3.4922,0.043,1.6106,-46.5686,1.0504,37.8,98063.0,,,,,,,
2.62,,,,,,,,,191.229,5.988,0.451,-7.992,0.229,162.02,59.54
2.625,-0.0522,-3.4722,0.0142,1.4006,-47.8291,0.5602,37.9,98063.0,,,,,,,
2.63,,,,,,,,,191.627,5.956,0.451,-8.016,0.23,162.54,59.521
2.635,-0.0684,-3.4731,0.0098,2.381,-47.549,1.0504,37.9,98047.0,,,,,,,
2.64,,,,,,,,,192.019,5.923,0.453,-8.041,0.23,165.1,58.699
2.645,-0.021,-3.4531,0.0518,2.381,-47.3389,-0.6303,37.9,98018.0,,,,,,,
2.65,,,,,,,,,192.402,5.89,0.454,-8.065,0.231,165.87,58.227
2.655,-0.0449,-3.4282,-0.0024,2.6611,-46.2185,-0.6303,37.9,97996.0,,,,,,,
2.66,,,,,,,,,192.783,5.857,0.456,-8.088,0.231,167.41,57.991
2.665,-0.0791,-3.4155,0.0127,4.0616,-48.1092,-0.6303,37.9,97993.0,,,,,,,
2.67,,,,,,,,,193.156,5.825,0.459,-8.111,0.231,167.84,57.718
2.675,-0.0073,-3.3975,0.0229,3.0112,-47.3389,-2.0308,37.9,97999.0,,,,,,,
2.68,,,,,,,,,193.522,5.791,0.462,-8.135,0.232,167.84,57.349
2.685,-0.0679,-3.3716,-0.0034,3.0812,-49.7899,-1.5406,37.9,97975.0,,,,,,,
2.69,,,,,,,,,193.886,5.758,0.466,-8.158,0.232,169.2,57.33
2.695,-0.0562,-3.3672,0.0146,3.3613,-49.7199,-2.521,37.8,97922.0,,,,,,,
2.7,,,,,,,,,194.247,5.723,0.47,-8.183,0.232,171.68,56.962
2.705,-0.0166,-3.3374,0.0054,2.591,-50.1401,-3.0812,37.9,97936.0,,,,,,,
2.71,,,,,,,,,194.602,5.688,0.474,-8.207,0.231,173.31,56.481
2.715,-0.0806,-3.332,0.0264,3.0112,-50.7003,-2.0308,37.9,97930.0,,,,,,,
2.72,,,,,,,,,194.951,5.653,0.478,-8.231,0.23,173.56,56.235
2.725,-0.0845,-3.2944,0.0103,1.9608,-47.1289,-1.4706,37.9,97929.0,,,,,,,
2.73,,,,,,,,,195.292,5.617,0.482,-8.256,0.23,173.82,55.886
2.735,-0.062,-3.2778,0.0156,2.1008,-48.1793,-1.2605,37.9,97919.0,,,,,,,
2.74,,,,,,,,,195.627,5.583,0.485,-8.278,0.229,175.36,55.385
2.745,-0.0391,-3.2607,0.0488,2.0308,-50.6303,-3.6415,37.9,97887.0,,,,,,,
2.75,,,,,,,,,195.964,5.549,0.487,-8.301,0.228,178.7,55.3
2.755,-0.0566,-3.2578,0.0293,0.9104,-52.591,-2.8011,37.9,97901.0,,,,,,,
2.76,,,,,,,,,196.292,5.513,0.492,-8.325,0.226,179.21,54.725
2.765,-0.0679,-3.23,0.0034,-0.8403,-53.7115,-3.5014,37.9,97883.0,,,,,,,
2.77,,,,,,,,,196.614,5.475,0.495,-8.349,0.224,179.29,54.621
2.775,-0.0557,-3.2202,0.0176,-0.7003,-51.6106,-5.1821,37.9,97876.0,,,,,,,
2.78,,,,,,,,,196.926,5.437,0.498,-8.374,0.22,179.89,53.894
2.785,-0.0493,-3.2007,0.0425,-0.3501,-50.07,-4.2717,37.9,97858.0,,,,,,,
2.79,,,,,,,,,197.23,5.4,0.503,-8.398,0.215,180.15,53.573
2.795,-0.0659,-3.1758,0.0361,-1.7507,-53.3613,-5.1821,37.9,97863.0,,,,,,,
2.8,,,,,,,,,197.53,5.364,0.506,-8.421,0.211,181.69,53.242
2.805,-0.061,-3.1392,0.0278,-1.7507,-54.972,-6.0224,37.8,97829.0,,,,,,,
2.81,,,,,,,,,197.828,5.325,0.51,-8.445,0.206,182.89,53.185
2.815,-0.0557,-3.1299,0.043,-2.7311,-56.4426,-6.5126,37.9,97805.0,,,,,,,
2.82,,,,,,,,,198.116,5.285,0.514,-8.47,0.2,183.23,52.647
2.825,-0.0508,-3.1162,0.0112,-3.0112,-56.2325,-5.8123,37.8,97787.0,,,,,,,
2.83,,,,,,,,,198.398,5.244,0.519,-8.496,0.193,183.83,52.458
2.835,-0.1035,-3.0762,0.0293,-2.2409,-54.2717,-5.3221,37.8,97805.0,,,,,,,
2.84,,,,,,,,,198.675,5.204,0.523,-8.521,0.186,184.94,52.081
2.845,-0.062,-3.0659,0.0205,-1.7507,-51.3305,-6.3725,37.9,97786.0,,,,,,,
2.85,,,,,,,,,198.943,5.164,0.526,-8.545,0.18,185.37,51.599
2.855,-0.0923,-3.0801,0.021,-0.9804,-50.7003,-4.1317,37.9,97761.0,,,,,,,
2.86,,,,,,,,,199.206,5.127,0.531,-8.567,0.174,187.86,50.891
2.865,-0.0654,-3.0493,0.0542,-2.381,-48.8796,-4.1317,37.9,97738.0,,,,,,,
2.87,,,,,,,,,199.467,5.089,0.534,-8.589,0.169,189.91,50.712
2.875,-0.0532,-3.0078,0.0166,-1.5406,-50.5602,-4.4818,37.8,97766.0,,,,,,,
2.88,,,,,,,,,199.72,5.053,0.536,-8.61,0.164,189.91,50.447
2.885,-0.103,-3.0015,0.0488,0.0,-48.8796,-2.7311,37.9,97714.0,,,,,,,
2.89,,,,,,,,,199.965,5.016,0.54,-8.632,0.159,191.45,49.749
2.895,-0.083,-2.9995,0.0454,-1.2605,-46.7787,-2.7311,37.9,97743.0,,,,,,,
2.9,,,,,,,,,200.205,4.98,0.542,-8.653,0.156,191.54,49.673
2.905,-0.0537,-2.9814,0.0332,-0.9804,-44.4678,-2.3109,37.9,97707.0,,,,,,,
2.91,,,,,,,,,200.442,4.945,0.544,-8.672,0.152,193.25,49.475
2.915,-0.0933,-2.9722,0.0498,0.4202,-46.2185,-0.8403,37.8,97698.0,,,,,,,
2.92,,,,,,,,,200.673,4.912,0.546,-8.691,0.149,193.68,49.154
2.925,-0.0806,-2.9419,0.002,-0.8403,-44.7479,-1.0504,37.9,97663.0,,,,,,,
2.93,,,,,,,,,200.894,4.878,0.547,-8.71,0.147,195.22,48.351
2.935,-0.0815,-2.9043,0.0391,-1.3305,-43.8375,0.7003,37.9,97653.0,,,,,,,
2.94,,,,,,,,,201.11,4.845,0.548,-8.729,0.144,195.65,48.229
2.945,-0.0869,-2.9219,0.0542,0.2801,-45.8683,0.5602,37.9,97632.0,,,,,,,
2.95,,,,,,,,,201.326,4.812,0.547,-8.747,0.142,197.71,48.191
2.955,-0.0698,-2.8794,0.0347,-0.7003,-44.3277,0.3501,37.9,97629.0,,,,,,,
2.96,,,,,,,,,201.536,4.778,0.547,-8.766,0.141,198.31,47.841
2.965,-0.0957,-2.8662,0.0244,0.4902,-46.4286,1.9608,37.9,97598.0,,,,,,,
2.97,,,,,,,,,201.74,4.744,0.547,-8.784,0.139,199.08,47.662
2.975,-0.0493,-2.853,0.041,1.0504,-48.4594,0.3501,37.9,97615.0,,,,,,,
2.98,,,,,,,,,201.942,4.709,0.546,-8.803,0.138,202.08,47.077
2.985,-0.0674,-2.814,0.0503,0.7703,-49.5098,2.3109,37.8,97572.0,,,,,,,
2.99,,,,,,,,,202.137,4.673,0.547,-8.822,0.137,202.94,46.69
2.995,-0.0947,-2.7974,0.0337,-1.1905,-48.7395,3.9916,37.9,97546.0,,,,,,,
3.0,,,,,,,,,202.328,4.635,0.545,-8.842,0.137,204.74,46.35
3.005,-0.0581,-2.7617,0.0337,0.07,-49.93,2.1709,37.9,97539.0,,,,,,,
3.01,,,,,,,,,202.511,4.598,0.542,-8.862,0.136,205.0,45.868
3.015,-0.0771,-2.7485,0.0645,0.8403,-50.4902,3.3613,37.9,97543.0,,,,,,,
3.02,,,,,,,,,202.689,4.56,0.541,-8.882,0.135,206.2,45.613
3.025,-0.0854,-2.7148,0.0034,-0.7703,-48.5294,3.8515,37.8,97511.0,,,,,,,
3.03,,,,,,,,,202.863,4.521,0.539,-8.901,0.135,207.66,45.358
3.035,-0.0767,-2.7183,0.0151,0.9104,-47.9692,2.8711,37.9,97511.0,,,,,,,
3.04,,,,,,,,,203.031,4.484,0.536,-8.92,0.134,209.89,44.603
3.045,-0.0537,-2.7363,0.0854,0.8403,-47.3389,2.591,37.9,97495.0,,,,,,,
3.05,,,,,,,,,203.197,4.448,0.535,-8.939,0.134,212.12,44.282
3.055,-0.0532,-2.6689,-0.0181,0.5602,-47.7591,2.8011,37.8,97480.0,,,,,,,
3.06,,,,,,,,,203.351,4.411,0.533,-8.957,0.134,212.38,43.593
3.065,-0.0342,-2.6499,0.0024,1.1905,-48.4594,1.4006,37.9,97473.0,,,,,,,
3.07,,,,,,,,,203.499,4.374,0.532,-8.975,0.134,212.72,43.338
3.075,-0.0317,-2.646,0.0176,3.1513,-48.3193,3.7815,37.8,97439.0,,,,,,,
3.08,,,,,,,,,203.646,4.337,0.531,-8.993,0.134,215.12,43.102
3.085,-0.0542,-2.6484,0.0342,3.0812,-50.07,3.3613,37.9,97451.0,,,,,,,
3.09,,,,,,,,,203.785,4.3,0.53,-9.011,0.136,215.12,42.752
3.095,-0.0547,-2.5757,0.001,1.1905,-50.9804,2.8711,37.8,97406.0,,,,,,,
3.1,,,,,,,,,203.921,4.261,0.529,-9.03,0.138,216.5,42.686
3.105,-0.0425,-2.5791,-0.0161,3.2913,-51.3305,3.2913,37.8,97409.0,,,,,,,
3.11,,,,,,,,,204.048,4.221,0.527,-9.048,0.138,217.79,41.799
3.115,-0.0454,-2.5605,0.0229,3.7815,-54.0616,2.0308,37.9,97392.0,,,,,,,
3.12,,,,,,,,,204.167,4.181,0.526,-9.067,0.14,218.39,41.43
3.125,-0.0386,-2.501,-0.0215,2.381,-52.9412,2.7311,37.9,97354.0,,,,,,,
3.13,,,,,,,,,204.287,4.139,0.526,-9.086,0.142,220.28,41.402
3.135,-0.085,-2.5117,-0.0103,5.2521,-54.6919,1.6807,37.8,97372.0,,,,,,,
3.14,,,,,,,,,204.403,4.097,0.526,-9.105,0.143,221.31,41.355
3.145,-0.0088,-2.5112,0.0547,4.6919,-52.3109,1.1204,37.8,97351.0,,,,,,,
3.15,,,,,,,,,204.51,4.054,0.526,-9.124,0.145,223.89,40.061
3.155,-0.0713,-2.4785,-0.0229,2.1709,-53.5014,0.6303,37.8,97360.0,,,,,,,
3.16,,,,,,,,,204.611,4.013,0.528,-9.142,0.148,224.14,39.995
3.165,-0.0576,-2.4766,-0.0068,4.2017,-53.9216,0.2801,37.8,97340.0,,,,,,,
3.17,,,,,,,,,204.707,3.971,0.528,-9.161,0.148,225.35,39.703
3.175,-0.0049,-2.4419,0.022,2.9412,-52.9412,-1.2605,37.9,97359.0,,,,,,,
3.18,,,,,,,,,204.795,3.928,0.53,-9.179,0.149,227.07,38.758
3.185,-0.0298,-2.3994,0.0059,3.3613,-57.3529,-0.7703,37.9,97372.0,,,,,,,
3.19,,,,,,,,,204.88,3.886,0.532,-9.197,0.149,228.1,38.749
3.195,-0.0391,-2.4048,0.0068,2.6611,-57.7731,-1.0504,37.8,97377.0,,,,,,,
3.2,,,,,,,,,204.958,3.841,0.535,-9.216,0.149,228.1,38.551
3.205,-0.0234,-2.3794,-0.0405,-0.2101,-52.8711,-0.8403,37.8,97348.0,,,,,,,
3.21,,,,,,,,,205.027,3.795,0.537,-9.235,0.149,228.1,38.116
3.215,-0.0435,-2.3521,0.0059,2.2409,-51.9608,-0.1401,37.9,97366.0,,,,,,,
3.22,,,,,,,,,205.091,3.753,0.538,-9.252,0.146,228.18,38.079
3.225,0.0176,-2.3599,0.0254,1.4706,-51.1204,-0.3501,37.8,97345.0,,,,,,,
3.23,,,,,,,,,205.143,3.711,0.539,-9.268,0.146,228.1,37.408
3.235,-0.0635,-2.3145,0.002,-2.8711,-50.07,0.6303,37.8,97343.0,,,,,,,
3.24,,,,,,,,,205.183,3.671,0.54,-9.284,0.145,228.18,36.691
3.245,-0.0522,-2.3081,-0.0337,-1.1905,-48.5294,1.6106,37.8,97357.0,,,,,,,
3.25,,,,,,,,,205.218,3.631,0.539,-9.3,0.141,228.18,36.587
3.255,-0.0039,-2.3179,0.0024,-0.3501,-45.4482,-0.8403,37.9,97339.0,,,,,,,
3.26,,,,,,,,,205.245,3.592,0.538,-9.315,0.139,228.35,36.2
3.265,-0.0513,-2.2769,0.0156,-0.7703,-49.1597,0.8403,37.8,97307.0,,,,,,,
3.27,,,,,,,,,205.262,3.556,0.539,-9.329,0.137,228.35,35.822
3.275,-0.0146,-2.2627,0.0127,-2.1709,-48.1092,-0.1401,37.8,97360.0,,,,,,,
3.28,,,,,,,,,205.276,3.517,0.538,-9.344,0.135,229.13,35.671
3.285,-0.0278,-2.2178,-0.0425,-1.0504,-50.0,-1.4706,37.8,97323.0,,,,,,,
3.29,,,,,,,,,205.279,3.478,0.538,-9.359,0.131,229.13,35.01
3.295,-0.084,-2.1987,-0.0308,-0.3501,-51.6807,-0.8403,37.9,97318.0,,,,,,,
3.3,,,,,,,,,205.277,3.438,0.539,-9.373,0.128,229.39,34.944
3.305,-0.0137,-2.1704,0.0093,-1.2605,-48.5994,-1.4006,37.9,97322.0,,,,,,,
3.31,,,,,,,,,205.27,3.396,0.54,-9.388,0.125,229.56,34.821
3.315,-0.0396,-2.1689,-0.0078,-3.3613,-47.8291,-2.1709,37.9,97301.0,,,,,,,
3.32,,,,,,,,,205.253,3.357,0.541,-9.402,0.122,229.9,34.217
3.325,-0.0098,-2.1577,-0.0161,-1.0504,-47.9692,-2.0308,37.8,97304.0,,,,,,,
3.33,,,,,,,,,205.232,3.319,0.542,-9.416,0.117,231.28,33.943
3.335,-0.019,-2.1221,0.0239,0.07,-53.5714,-2.451,37.8,97283.0,,,,,,,
3.34,,,,,,,,,205.198,3.28,0.544,-9.43,0.114,231.36,33.075
3.345,-0.064,-2.0767,-0.0405,-2.381,-55.6022,-2.1709,37.8,97275.0,,,,,,,
3.35,,,,,,,,,205.158,3.237,0.546,-9.444,0.111,231.71,32.706
3.355,-0.0215,-2.0635,-0.0264,-2.3109,-54.1317,-2.9412,37.8,97251.0,,,,,,,
3.36,,,,,,,,,205.109,3.192,0.547,-9.46,0.106,232.66,32.159
3.365,-0.02,-2.0933,0.0405,0.0,-53.5714,-3.4314,37.8,97257.0,,,,,,,
3.37,,,,,,,,,205.057,3.148,0.549,-9.474,0.101,232.91,32.13
3.375,-0.0479,-2.0796,-0.0254,-2.1008,-52.1008,-2.3109,37.8,97204.0,,,,,,,
3.38,,,,,,,,,204.999,3.104,0.552,-9.489,0.098,233.17,31.913
3.385,-0.0259,-2.0386,-0.0156,-1.8207,-52.8011,-2.451,37.8,97218.0,,,,,,,
3.39,,,,,,,,,204.934,3.062,0.554,-9.502,0.094,234.72,31.224
3.395,-0.0117,-2.0581,0.0117,2.1709,-58.5434,-2.591,37.8,97192.0,,,,,,,
3.4,,,,,,,,,204.861,3.019,0.555,-9.516,0.09,235.41,30.667
3.405,-0.041,-2.0122,0.0,0.07,-62.8852,-2.521,37.8,97200.0,,,,,,,
3.41,,,,,,,,,204.785,2.971,0.558,-9.531,0.089,236.96,30.403
3.415,-0.0327,-2.0151,-0.0137,-0.1401,-66.7367,-2.1008,37.8,97147.0,,,,,,,
3.42,,,,,,,,,204.706,2.92,0.561,-9.547,0.085,237.47,30.346
3.425,-0.0059,-1.9917,-0.0171,0.6303,-68.7675,-3.2913,37.8,97125.0,,,,,,,
3.43,,,,,,,,,204.628,2.865,0.563,-9.563,0.082,240.31,30.091
3.435,-0.0337,-1.9609,0.0225,3.5714,-70.9384,-3.0112,37.8,97143.0,,,,,,,
3.44,,,,,,,,,204.548,2.808,0.566,-9.58,0.079,241.52,29.987
3.445,-0.04,-1.96,-0.0215,3.8515,-70.4482,-0.4202,37.8,97109.0,,,,,,,
3.45,,,,,,,,,204.461,2.749,0.569,-9.597,0.078,241.86,29.609
3.455,-0.0562,-1.9097,-0.0239,3.2913,-69.958,-0.9804,37.8,97103.0,,,,,,,
3.46,,,,,,,,,204.367,2.691,0.571,-9.613,0.078,242.55,29.156
3.465,-0.0454,-1.9062,0.0527,4.4818,-70.5182,-0.9804,37.9,97101.0,,,,,,,
3.47,,,,,,,,,204.28,2.632,0.572,-9.629,0.077,246.43,29.1
3.475,-0.0728,-1.8784,-0.0361,0.0,-70.3782,-0.9104,37.9,97047.0,,,,,,,
3.48,,,,,,,,,204.185,2.574,0.574,-9.645,0.078,246.77,28.703
3.485,-0.0391,-1.8198,-0.0098,0.4202,-72.409,-1.0504,37.9,97060.0,,,,,,,
3.49,,,,,,,,,204.085,2.515,0.575,-9.66,0.075,248.32,28.108
3.495,-0.0034,-1.8311,-0.0049,2.8711,-73.9496,-2.521,37.9,97022.0,,,,,,,
3.5,,,,,,,,,203.984,2.455,0.576,-9.676,0.072,249.7,28.089
3.505,-0.0459,-1.8169,0.0098,1.1905,-75.6303,0.0,37.9,97014.0,,,,,,,
3.51,,,,,,,,,203.871,2.393,0.579,-9.691,0.07,250.22,27.117
3.515,-0.0425,-1.7891,-0.0112,3.0112,-75.0,0.8403,37.8,96979.0,,,,,,,
3.52,,,,,,,,,203.753,2.33,0.58,-9.707,0.068,250.39,27.051
3.525,-0.0439,-1.7788,-0.0151,2.8711,-75.7703,-0.07,37.9,96951.0,,,,,,,
3.53,,,,,,,,,203.636,2.267,0.58,-9.722,0.067,253.92,26.512
3.535,-0.062,-1.7739,-0.0098,2.1008,-76.1905,1.0504,37.8,96949.0,,,,,,,
3.54,,,,,,,,,203.509,2.203,0.58,-9.736,0.066,255.04,25.597
3.545,-0.0796,-1.7241,-0.0303,0.9804,-75.7703,0.3501,37.8,96933.0,,,,,,,
3.55,,,,,,,,,203.382,2.139,0.58,-9.751,0.065,257.2,25.379
3.555,-0.0674,-1.6538,-0.0127,1.9608,-68.9076,-0.3501,37.8,96914.0,,,,,,,
3.56,,,,,,,,,203.252,2.075,0.58,-9.764,0.062,257.89,25.323
3.565,-0.043,-1.6455,0.0288,0.7003,-66.8067,1.6106,37.9,96894.0,,,,,,,
3.57,,,,,,,,,203.121,2.017,0.581,-9.776,0.061,260.91,24.785
3.575,-0.0947,-1.6265,-0.0684,-2.591,-67.6471,0.5602,37.8,96885.0,,,,,,,
3.58,,,,,,,,,202.992,1.96,0.579,-9.788,0.059,263.32,24.586
3.585,-0.0474,-1.5811,-0.0186,-1.5406,-66.3165,-0.7003,37.9,96850.0,,,,,,,
3.59,,,,,,,,,202.858,1.903,0.579,-9.799,0.054,263.49,24.492
3.595,-0.0981,-1.5718,0.0088,-0.07,-66.3165,1.1905,37.8,96857.0,,,,,,,
3.6,,,,,,,,,202.714,1.848,0.579,-9.81,0.049,264.87,23.529
3.605,-0.0864,-1.5635,-0.0024,-2.1709,-65.1961,-1.3305,37.8,96814.0,,,,,,,
3.61,,,,,,,,,202.557,1.792,0.578,-9.821,0.047,266.51,22.169
3.615,-0.0571,-1.5103,-0.0635,-3.9916,-70.028,-4.2717,37.8,96803.0,,,,,,,
3.62,,,,,,,,,202.4,1.736,0.579,-9.83,0.042,268.24,22.009
3.625,-0.0317,-1.4834,0.0186,-2.1008,-67.507,-3.5714,37.8,96741.0,,,,,,,
3.63,,,,,,,,,202.237,1.677,0.581,-9.84,0.034,269.01,21.641
3.635,-0.0747,-1.4775,-0.0093,-0.7703,-68.6275,-1.3305,37.8,96757.0,,,,,,,
3.64,,,,,,,,,202.069,1.62,0.584,-9.85,0.029,271.43,20.762
3.645,-0.083,-1.4844,-0.0439,-0.1401,-66.1765,-2.1709,37.8,96745.0,,,,,,,
3.65,,,,,,,,,201.897,1.562,0.585,-9.859,0.025,272.03,20.583
3.655,-0.0557,-1.4341,-0.0093,-0.6303,-64.1457,-0.7703,37.8,96708.0,,,,,,,
3.66,,,,,,,,,201.728,1.506,0.587,-9.868,0.022,275.14,20.423
3.665,-0.0396,-1.2852,-0.0259,-0.1401,-67.8571,-1.5406,37.8,96695.0,,,,,,,
3.67,,,,,,,,,201.547,1.451,0.587,-9.876,0.018,276.09,19.393
3.675,-0.0757,-1.2183,-0.0166,1.5406,-68.9076,-2.1709,37.8,96671.0,,,,,,,
3.68,,,,,,,,,201.37,1.394,0.588,-9.884,0.015,280.07,18.893
3.685,-0.0845,-1.144,-0.0659,1.7507,-69.0476,-1.8908,37.9,96657.0,,,,,,,
3.69,,,,,,,,,201.191,1.335,0.59,-9.892,0.013,281.11,18.874
3.695,-0.0371,-1.1045,-0.0625,1.6106,-69.958,-3.2213,37.8,96617.0,,,,,,,
3.7,,,,,,,,,201.009,1.276,0.591,-9.9,0.011,281.45,18.761
3.705,-0.0737,-1.0469,-0.063,2.6611,-70.098,-3.1513,37.8,96594.0,,,,,,,
3.71,,,,,,,,,200.822,1.216,0.594,-9.907,0.009,284.3,17.92
3.715,-0.0264,-1.0146,-0.0425,5.112,-65.9664,-1.6807,37.8,96619.0,,,,,,,
3.72,,,,,,,,,200.606,1.156,0.597,-9.914,0.008,285.43,15.041
3.725,-0.0464,-0.9902,-0.0527,4.6919,-68.7675,-0.4202,37.9,96564.0,,,,,,,
3.73,,,,,,,,,200.379,1.099,0.598,-9.921,0.009,287.5,13.747
3.735,-0.0386,-0.9326,-0.0293,5.112,-68.0672,-0.6303,37.8,96533.0,,,,,,,
3.74,,,,,,,,,200.138,1.04,0.599,-9.927,0.01,288.71,12.312
3.745,-0.0464,-0.9048,-0.0508,6.0224,-68.7675,0.0,37.8,96505.0,,,,,,,
3.75,,,,,,,,,199.894,0.982,0.6,-9.933,0.011,292.0,11.547
3.755,-0.042,-0.8374,-0.0518,3.1513,-68.1373,2.1008,37.8,96480.0,,,,,,,
3.76,,,,,,,,,199.637,0.923,0.6,-9.939,0.013,292.17,10.433
3.765,-0.0547,-0.7739,-0.0669,5.6022,-71.7087,0.1401,37.8,96492.0,,,,,,,
3.77,,,,,,,,,199.375,0.864,0.598,-9.944,0.013,294.16,9.81
3.775,-0.0317,-0.7495,-0.0391,4.3417,-70.6583,1.3305,37.8,96442.0,,,,,,,
3.78,,,,,,,,,199.112,0.802,0.598,-9.949,0.014,296.76,9.338
3.785,-0.0806,-0.6631,-0.083,1.0504,-69.7479,3.7115,37.8,96404.0,,,,,,,
3.79,,,,,,,,,198.842,0.742,0.597,-9.954,0.015,299.44,8.224
3.795,-0.0107,-0.604,-0.0566,1.8207,-64.986,1.8207,37.8,96406.0,,,,,,,
3.8,,,,,,,,,198.57,0.682,0.593,-9.959,0.013,301.87,7.686
3.805,-0.0659,-0.5513,-0.0522,3.2213,-64.8459,3.4314,37.8,96351.0,,,,,,,
3.81,,,,,,,,,198.285,0.626,0.591,-9.962,0.011,302.99,6.383
3.815,-0.0176,-0.5034,-0.0557,2.2409,-62.8151,3.3613,37.8,96352.0,,,,,,,
3.82,,,,,,,,,197.987,0.57,0.588,-9.966,0.011,304.03,5.155
3.825,-0.0317,-0.4556,-0.0645,0.2801,-63.2353,3.2913,37.8,96305.0,,,,,,,
3.83,,,,,,,,,197.69,0.516,0.585,-9.969,0.011,307.32,4.683
3.835,-0.0142,-0.3896,-0.0801,-1.1905,-63.9356,3.3613,37.8,96272.0,,,,,,,
3.84,,,,,,,,,197.381,0.462,0.582,-9.972,0.008,310.44,3.012
3.845,-0.0195,-0.3398,-0.0552,-1.2605,-65.1961,3.0812,37.8,96248.0,,,,,,,
3.85,,,,,,,,,197.058,0.407,0.579,-9.974,0.004,310.62,1.869
3.855,0.0039,-0.3462,-0.0425,0.3501,-64.6359,3.2213,37.8,96221.0,,,,,,,
3.86,,,,,,,,,196.735,0.351,0.576,-9.977,0.001,315.12,0.85
3.865,0.0044,-0.3081,-0.0562,-3.6415,-66.5266,2.8711,37.9,96186.0,,,,,,,
3.87,,,,,,,,,196.399,0.295,0.572,-9.979,-0.001,315.21,-0.076
3.875,-0.0249,-0.2505,-0.0801,-4.902,-67.6471,2.2409,37.8,96165.0,,,,,,,
3.88,,,,,,,,,196.061,0.238,0.569,-9.98,-0.007,319.2,-1.001
3.885,-0.0151,-0.2046,-0.0566,-3.0812,-68.8375,1.6106,37.9,96135.0,,,,,,,
3.89,,,,,,,,,195.716,0.181,0.567,-9.982,-0.014,322.06,-2.275
3.895,-0.02,-0.1582,-0.0234,-2.381,-71.0084,0.07,37.9,96143.0,,,,,,,
3.9,,,,,,,,,195.365,0.122,0.565,-9.983,-0.02,324.14,-3.116
3.905,-0.0107,-0.1113,-0.041,-2.2409,-73.9496,-1.2605,37.8,96117.0,,,,,,,
3.91,,,,,,,,,195.015,0.061,0.564,-9.983,-0.025,326.48,-3.239
3.915,-0.002,-0.0464,-0.0386,-4.8319,-76.1204,-1.3305,37.8,96142.0,,,,,,,
3.92,,,,,,,,,194.665,-0.002,0.565,-9.983,-0.03,329.52,-3.852
3.925,0.0049,0.0361,-0.0337,-5.5322,-80.9524,-2.591,37.8,96111.0,,,,,,,
3.93,,,,,,,,,194.306,-0.067,0.565,-9.983,-0.038,331.35,-4.966
3.935,0.001,0.0894,-0.0659,-5.042,-85.8543,-1.6106,37.8,96088.0,,,,,,,
3.94,,,,,,,,,193.939,-0.137,0.567,-9.982,-0.046,333.26,-5.854
3.945,-0.0137,0.1099,-0.041,-4.4118,-89.2857,-2.521,37.8,96076.0,,,,,,,
3.95,,,,,,,,,193.56,-0.211,0.568,-9.981,-0.055,333.34,-6.751
3.955,-0.043,0.1455,-0.0513,-4.3417,-87.465,-3.9216,37.8,96043.0,,,,,,,
3.96,,,,,,,,,193.169,-0.287,0.569,-9.979,-0.062,333.95,-7.657
3.965,-0.04,0.1753,-0.0298,-4.0616,-85.3641,-4.4818,37.8,96057.0,,,,,,,
3.97,,,,,,,,,192.767,-0.363,0.572,-9.976,-0.07,335.52,-8.913
3.975,-0.0264,0.2266,-0.0547,-3.0812,-85.7143,-3.9916,37.8,95965.0,,,,,,,
3.98,,,,,,,,,192.347,-0.436,0.575,-9.973,-0.077,336.04,-10.509
3.985,-0.0264,0.2642,-0.0483,-1.1905,-83.1933,-2.591,37.8,95973.0,,,,,,,
3.99,,,,,,,,,191.919,-0.51,0.577,-9.969,-0.084,338.03,-11.538
3.995,-0.0176,0.3008,-0.0435,1.8207,-82.2829,-2.9412,37.8,95958.0,,,,,,,
4.0,,,,,,,,,191.486,-0.581,0.579,-9.965,-0.089,339.08,-11.934
4.005,0.001,0.3286,-0.0425,2.451,-82.563,-1.7507,37.8,95959.0,,,,,,,
4.01,,,,,,,,,191.047,-0.652,0.58,-9.961,-0.091,340.73,-12.624
4.015,-0.021,0.353,-0.0415,4.4818,-84.0336,0.8403,37.8,95908.0,,,,,,,
4.02,,,,,,,,,190.602,-0.723,0.58,-9.956,-0.092,341.95,-13.2
4.025,-0.0342,0.3774,-0.0342,4.8319,-86.3445,-1.3305,37.8,95908.0,,,,,,,
4.03,,,,,,,,,190.163,-0.796,0.578,-9.951,-0.092,348.03,-14.191
4.035,-0.0308,0.4204,-0.043,2.6611,-85.9244,-2.6611,37.8,95859.0,,,,,,,
4.04,,,,,,,,,189.715,-0.87,0.578,-9.944,-0.092,348.73,-14.918
4.045,-0.0234,0.4424,-0.0635,4.2017,-88.7255,-1.6807,37.8,95813.0,,,,,,,
4.05,,,,,,,,,189.257,-0.944,0.579,-9.937,-0.094,349.25,-15.626
4.055,-0.0254,0.4966,-0.0469,4.6919,-89.1457,-1.8207,37.8,95785.0,,,,,,,
4.06,,,,,,,,,188.791,-1.02,0.579,-9.93,-0.094,349.34,-16.164
4.065,-0.0312,0.5039,-0.0405,6.5826,-88.4454,-2.1709,37.9,95734.0,,,,,,,
4.07,,,,,,,,,188.329,-1.097,0.579,-9.922,-0.094,353.69,-16.636
4.075,-0.0508,0.5366,-0.0557,3.8515,-87.465,-2.0308,37.8,95653.0,,,,,,,
4.08,,,,,,,,,187.859,-1.173,0.579,-9.913,-0.092,353.69,-17.108
4.085,-0.0293,0.5903,-0.0317,7.3529,-83.5434,-0.4902,37.8,95660.0,,,,,,,
4.09,,,,,,,,,187.39,-1.248,0.579,-9.904,-0.093,357.95,-17.939
4.095,-0.0283,0.6196,-0.0439,5.4622,-79.0616,0.2801,37.8,95601.0,,,,,,,
4.1,,,,,,,,,186.925,-1.32,0.578,-9.895,-0.09,361.96,-18.364
4.105,-0.022,0.6606,-0.0283,2.451,-76.8207,1.9608,37.8,95555.0,,,,,,,
4.11,,,,,,,,,186.454,-1.388,0.576,-9.885,-0.089,364.4,-19.412
4.115,-0.0391,0.7139,-0.0596,0.6303,-79.6218,2.6611,37.9,95515.0,,,,,,,
4.12,,,,,,,,,185.991,-1.453,0.573,-9.876,-0.091,368.84,-19.554
4.125,-0.0073,0.7314,-0.0405,2.3109,-79.2717,2.2409,37.8,95463.0,,,,,,,
4.13,,,,,,,,,185.538,-1.521,0.569,-9.866,-0.094,375.29,-20.187
4.135,-0.0098,0.7529,-0.0654,0.5602,-78.5014,1.8207,37.8,95426.0,,,,,,,
4.14,,,,,,,,,185.072,-1.589,0.566,-9.856,-0.096,375.9,-21.225
4.145,-0.0283,0.7754,-0.0933,0.2101,-79.5518,2.0308,37.8,95390.0,,,,,,,
4.15,,,,,,,,,184.611,-1.655,0.563,-9.845,-0.1,380.44,-21.792
4.155,-0.0132,0.8018,-0.0811,0.9104,-81.7227,1.6807,37.8,95349.0,,,,,,,
4.16,,,,,,,,,184.151,-1.723,0.56,-9.833,-0.104,384.45,-22.585
4.165,-0.0176,0.7939,-0.0098,1.7507,-79.8319,1.6807,37.8,95323.0,,,,,,,
4.17,,,,,,,,,183.687,-1.792,0.557,-9.821,-0.107,387.95,-23.614
4.175,-0.0146,0.7944,-0.0078,-3.6415,-77.7311,2.1709,37.8,95289.0,,,,,,,
4.18,,,,,,,,,183.23,-1.86,0.554,-9.809,-0.109,392.48,-23.954
4.185,-0.0024,0.7681,-0.0332,-4.6218,-77.7311,2.6611,37.8,95233.0,,,,,,,
4.19,,,,,,,,,182.774,-1.926,0.552,-9.796,-0.116,395.72,-24.369
4.195,-0.0474,0.7642,-0.0635,-4.5518,-78.5714,2.8011,37.8,95241.0,,,,,,,
4.2,,,,,,,,,182.322,-1.991,0.549,-9.783,-0.124,398.86,-24.662
4.205,-0.042,0.7393,-0.0425,-4.0616,-76.1905,1.8207,37.8,95211.0,,,,,,,
4.21,,,,,,,,,181.876,-2.057,0.546,-9.769,-0.132,402.45,-24.662
4.215,-0.0181,0.7188,-0.064,-3.4314,-75.2801,0.4202,37.8,95145.0,,,,,,,
4.22,,,,,,,,,181.433,-2.121,0.544,-9.756,-0.139,404.72,-24.662
4.225,-0.0107,0.7266,-0.0791,-1.8908,-77.1008,0.07,37.8,95146.0,,,,,,,
4.23,,,,,,,,,180.995,-2.184,0.543,-9.742,-0.145,407.7,-24.662
4.235,-0.0259,0.7397,-0.0371,-0.8403,-77.381,0.4902,37.8,95144.0,,,,,,,
4.24,,,,,,,,,180.566,-2.249,0.542,-9.727,-0.15,411.9,-24.662
4.245,-0.0142,0.7603,-0.0229,-0.1401,-74.3697,0.07,37.8,95101.0,,,,,,,
4.25,,,,,,,,,180.135,-2.314,0.54,-9.712,-0.154,412.6,-24.586
4.255,-0.001,0.7554,-0.0566,-1.3305,-74.8599,-0.8403,37.8,95092.0,,,,,,,
4.26,,,,,,,,,179.708,-2.376,0.539,-9.697,-0.158,414.52,-24.511
4.265,-0.0068,0.7554,-0.0645,-0.8403,-76.9608,-0.4202,37.8,95081.0,,,,,,,
4.27,,,,,,,,,179.294,-2.438,0.538,-9.681,-0.162,420.21,-24.416
4.275,-0.0156,0.7627,-0.0176,-0.4902,-77.381,-1.2605,37.8,95026.0,,,,,,,
4.28,,,,,,,,,178.877,-2.502,0.537,-9.665,-0.166,420.3,-24.416
4.285,-0.0176,0.7676,-0.0454,-0.6303,-76.8908,-2.1008,37.8,95051.0,,,,,,,
4.29,,,,,,,,,178.455,-2.567,0.537,-9.648,-0.169,420.39,-24.416
4.295,-0.0264,0.7627,-0.0645,-0.9804,-74.6499,-2.2409,37.8,94995.0,,,,,,,
4.3,,,,,,,,,178.041,-2.631,0.537,-9.631,-0.173,424.16,-24.416
4.305,-0.0112,0.7783,-0.0361,0.7703,-74.0896,-2.8711,37.8,94986.0,,,,,,,
4.31,,,,,,,,,177.625,-2.693,0.538,-9.613,-0.176,424.94,-24.416
4.315,-0.0234,0.7568,-0.0469,0.9104,-71.2885,-3.7115,37.8,94969.0,,,,,,,
4.32,,,,,,,,,177.207,-2.754,0.538,-9.596,-0.178,425.91,-24.511
4.325,-0.0269,0.7866,-0.043,-0.4202,-65.3361,-3.7815,37.8,94943.0,,,,,,,
4.33,,,,,,,,,176.793,-2.813,0.539,-9.579,-0.18,428.54,-24.511
4.335,-0.0151,0.7686,-0.0405,-0.07,-62.8151,-4.0616,37.8,94908.0,,,,,,,
4.34,,,,,,,,,176.381,-2.867,0.541,-9.562,-0.182,430.73,-24.558
4.345,-0.0093,0.7827,-0.0464,-0.7003,-66.1765,-3.8515,37.8,94891.0,,,,,,,
4.35,,,,,,,,,175.973,-2.919,0.543,-9.547,-0.184,433.45,-24.558
4.355,-0.0161,0.7695,-0.0532,-0.6303,-71.5686,-4.1317,37.8,94872.0,,,,,,,
4.36,,,,,,,,,175.563,-2.973,0.545,-9.53,-0.186,434.24,-24.652
4.365,-0.0215,0.769,-0.0391,0.3501,-74.3697,-3.9916,37.8,94830.0,,,,,,,
4.37,,,,,,,,,175.152,-3.032,0.547,-9.511,-0.189,435.73,-24.671
4.375,-0.0034,0.7754,-0.0239,0.07,-74.8599,-3.9216,37.9,94825.0,,,,,,,
4.38,,,,,,,,,174.745,-3.093,0.548,-9.491,-0.191,438.01,-24.681
4.385,-0.0278,0.769,-0.0469,0.7003,-73.2493,-3.3613,37.9,94823.0,,,,,,,
4.39,,,,,,,,,174.343,-3.154,0.55,-9.471,-0.193,441.08,-24.69
4.395,-0.0361,0.7734,-0.0713,0.9104,-71.5686,-3.2213,37.9,94791.0,,,,,,,
4.4,,,,,,,,,173.941,-3.214,0.551,-9.451,-0.195,442.57,-24.69
4.405,0.0225,0.7686,-0.0317,0.4902,-70.6583,-2.591,37.8,94786.0,,,,,,,
4.41,,,,,,,,,173.54,-3.272,0.552,-9.431,-0.197,444.24,-24.69
4.415,-0.0508,0.7671,-0.043,1.3305,-72.3389,-1.6807,37.8,94731.0,,,,,,,
4.42,,,,,,,,,173.147,-3.33,0.552,-9.41,-0.199,447.93,-24.69
4.425,-0.0137,0.7632,-0.0493,-0.3501,-69.2577,-1.6106,37.8,94736.0,,,,,,,
4.43,,,,,,,,,172.75,-3.388,0.551,-9.389,-0.2,448.37,-24.681
4.435,-0.0083,0.7593,-0.0542,-0.7003,-69.0476,-1.4706,37.8,94697.0,,,,,,,
4.44,,,,,,,,,172.35,-3.444,0.551,-9.369,-0.203,448.54,-24.681
4.445,-0.021,0.7607,-0.0366,-0.1401,-71.2185,-0.2101,37.8,94696.0,,,,,,,
4.45,,,,,,,,,171.955,-3.5,0.55,-9.348,-0.206,451.35,-24.681
4.455,-0.0244,0.7642,-0.0547,-0.4902,-68.7675,0.6303,37.8,94675.0,,,,,,,
4.46,,,,,,,,,171.557,-3.557,0.549,-9.327,-0.21,451.79,-24.671
4.465,-0.0303,0.7705,-0.0225,-0.07,-70.7983,0.4202,37.8,94627.0,,,,,,,
4.47,,,,,,,,,171.168,-3.613,0.547,-9.305,-0.213,456.19,-24.643
4.475,-0.0029,0.7646,-0.0195,0.9804,-71.7787,1.2605,37.8,94638.0,,,,,,,
4.48,,,,,,,,,170.777,-3.669,0.545,-9.283,-0.217,456.63,-24.643
4.485,-0.0317,0.7529,-0.0527,-1.2605,-71.2185,1.3305,37.8,94607.0,,,,,,,
4.49,,,,,,,,,170.391,-3.727,0.542,-9.26,-0.22,459.62,-24.596
4.495,-0.0024,0.7583,-0.0361,0.0,-69.2577,1.3305,37.8,94613.0,,,,,,,
4.5,,,,,,,,,170.002,-3.783,0.539,-9.238,-0.224,459.7,-24.586
4.505,-0.0239,0.7471,-0.041,0.07,-68.2773,1.4006,37.8,94594.0,,,,,,,
4.51,,,,,,,,,169.614,-3.838,0.536,-9.215,-0.228,461.55,-24.567
4.515,-0.0171,0.7476,-0.0601,-0.7703,-68.2773,1.9608,37.8,94554.0,,,,,,,
4.52,,,,,,,,,169.233,-3.892,0.533,-9.192,-0.231,464.81,-24.52
4.525,-0.0269,0.7588,-0.0298,0.1401,-70.098,1.3305,37.8,94530.0,,,,,,,
4.53,,,,,,,,,168.851,-3.946,0.53,-9.169,-0.235,465.77,-24.492
4.535,-0.002,0.7554,-0.0337,0.3501,-67.1569,1.1905,37.8,94497.0,,,,,,,
4.54,,,,,,,,,168.468,-4.002,0.527,-9.145,-0.239,467.0,-24.483
4.545,-0.0273,0.7554,-0.0405,0.7703,-67.9272,1.6106,37.8,94467.0,,,,,,,
4.55,,,,,,,,,168.083,-4.054,0.524,-9.122,-0.242,467.53,-24.473
4.555,-0.0176,0.7432,-0.0469,-1.1905,-68.5574,0.4902,37.8,94437.0,,,,,,,
4.56,,,,,,,,,167.698,-4.108,0.52,-9.098,-0.245,468.68,-24.416
4.565,0.0054,0.7417,-0.0347,0.7003,-65.4762,-0.2101,37.8,94384.0,,,,,,,
4.57,,,,,,,,,167.32,-4.161,0.519,-9.074,-0.249,472.2,-24.416
4.575,-0.0293,0.7422,-0.0625,-0.2101,-70.028,-0.4202,37.8,94391.0,,,,,,,
4.58,,,,,,,,,166.945,-4.212,0.517,-9.05,-0.251,474.31,-24.369
4.585,-0.0249,0.752,-0.0371,-0.2101,-66.8067,-0.2101,37.8,94337.0,,,,,,,
4.59,,,,,,,,,166.576,-4.267,0.515,-9.025,-0.254,477.22,-24.265
4.595,0.0044,0.7358,-0.0288,0.4202,-66.3866,-0.4202,37.8,94272.0,,,,,,,
4.6,,,,,,,,,166.211,-4.319,0.513,-9.0,-0.257,479.86,-24.265
4.605,-0.0171,0.7397,-0.0542,-0.1401,-71.1485,-0.4902,37.8,94305.0,,,,,,,
4.61,,,,,,,,,165.85,-4.37,0.511,-8.975,-0.259,482.5,-24.265
4.615,-0.0239,0.7305,-0.0562,-1.5406,-67.507,-0.5602,37.8,94245.0,,,,,,,
4.62,,,,,,,,,165.498,-4.425,0.51,-8.948,-0.262,486.55,-24.18
4.625,0.0029,0.7466,-0.0068,-2.2409,-63.7255,-0.9804,37.8,94207.0,,,,,,,
4.63,,,,,,,,,165.144,-4.477,0.509,-8.923,-0.266,487.17,-24.161
4.635,-0.0234,0.7383,-0.061,-1.1204,-69.6779,-1.2605,37.8,94175.0,,,,,,,
4.64,,,,,,,,,164.799,-4.526,0.508,-8.898,-0.27,491.32,-24.161
4.645,0.0,0.7383,-0.0376,-0.6303,-69.958,-1.6106,37.8,94146.0,,,,,,,
4.65,,,,,,,,,164.458,-4.579,0.508,-8.87,-0.273,494.14,-24.152
4.655,-0.0088,0.7173,-0.0298,-1.0504,-72.6891,-1.7507,37.8,94123.0,,,,,,,
4.66,,,,,,,,,164.122,-4.633,0.507,-8.843,-0.276,497.05,-24.114
4.665,-0.0312,0.7378,-0.0537,-2.451,-73.9496,-2.521,37.8,94096.0,,,,,,,
4.67,,,,,,,,,163.79,-4.688,0.507,-8.813,-0.279,499.43,-24.086
4.675,-0.0088,0.729,-0.022,-1.6106,-73.8796,-2.451,37.8,94039.0,,,,,,,
4.68,,,,,,,,,163.464,-4.744,0.507,-8.783,-0.283,502.79,-24.086
4.685,-0.0264,0.7192,-0.0454,-1.7507,-76.4006,-3.2213,37.8,94032.0,,,,,,,
4.69,,,,,,,,,163.142,-4.8,0.507,-8.753,-0.287,505.61,-24.077
4.695,-0.0176,0.7314,-0.0601,-2.0308,-74.2997,-2.381,37.8,93993.0,,,,,,,
4.7,,,,,,,,,162.824,-4.857,0.508,-8.721,-0.29,508.18,-24.077
4.705,-0.0034,0.7222,-0.0415,-3.0812,-71.9188,-2.1008,37.8,93959.0,,,,,,,
4.71,,,,,,,,,162.508,-4.913,0.508,-8.689,-0.294,510.21,-23.954
4.715,-0.0518,0.7319,-0.0356,-3.0112,-74.5098,-1.9608,37.8,93953.0,,,,,,,
4.72,,,,,,,,,162.196,-4.967,0.509,-8.658,-0.298,512.59,-23.954
4.725,-0.0293,0.7197,-0.0381,-2.2409,-73.7395,-2.1709,37.8,93879.0,,,,,,,
4.73,,,,,,,,,161.895,-5.022,0.509,-8.626,-0.303,517.63,-23.954
4.735,0.0044,0.707,-0.0483,-1.8207,-70.2381,-1.3305,37.8,93855.0,,,,,,,
4.74,,,,,,,,,161.592,-5.077,0.51,-8.594,-0.307,518.25,-23.907
4.745,-0.0537,0.7129,-0.0518,-2.8711,-71.6387,-0.6303,37.8,93820.0,,,,,,,
4.75,,,,,,,,,161.297,-5.129,0.509,-8.563,-0.311,521.7,-23.774
4.755,-0.0264,0.7104,-0.0303,-1.9608,-67.6471,-0.8403,37.8,93802.0,,,,,,,
4.76,,,,,,,,,161.006,-5.181,0.508,-8.531,-0.315,524.71,-23.774
4.765,-0.0127,0.7251,-0.0166,-2.8711,-63.6555,-0.3501,37.8,93777.0,,,,,,,
4.77,,,,,,,,,160.712,-5.231,0.507,-8.501,-0.319,525.24,-23.727
4.775,-0.0386,0.7148,-0.0537,-4.6919,-67.2269,0.2801,37.8,93776.0,,,,,,,
4.78,,,,,,,,,160.435,-5.277,0.507,-8.472,-0.324,531.79,-23.727
4.785,-0.0347,0.7168,-0.021,-3.2913,-67.577,1.0504,37.8,93766.0,,,,,,,
4.79,,,,,,,,,160.159,-5.326,0.506,-8.441,-0.331,533.92,-23.727
4.795,-0.0044,0.709,-0.0386,-2.521,-68.5574,1.1204,37.8,93713.0,,,,,,,
4.8,,,,,,,,,159.889,-5.375,0.505,-8.41,-0.336,537.01,-23.671
4.805,-0.0161,0.6929,-0.0439,-2.521,-67.7171,2.3109,37.8,93700.0,,,,,,,
4.81,,,,,,,,,159.62,-5.424,0.502,-8.378,-0.342,538.61,-23.633
4.815,-0.0283,0.707,-0.0415,-1.4006,-69.3277,2.0308,37.8,93664.0,,,,,,,
4.82,,,,,,,,,159.353,-5.473,0.499,-8.346,-0.347,540.82,-23.595
4.825,-0.0054,0.7002,-0.0342,-1.4706,-68.8375,2.3109,37.8,93665.0,,,,,,,
4.83,,,,,,,,,159.082,-5.523,0.496,-8.314,-0.352,540.91,-23.548
4.835,-0.0435,0.7114,-0.019,-0.2801,-69.2577,2.8711,37.8,93624.0,,,,,,,
4.84,,,,,,,,,158.81,-5.572,0.492,-8.281,-0.357,541.8,-23.548
4.845,-0.0132,0.7041,-0.0459,-1.4006,-65.2661,2.7311,37.8,93596.0,,,,,,,
4.85,,,,,,,,,158.547,-5.621,0.488,-8.248,-0.362,546.5,-23.548
4.855,-0.0234,0.7021,-0.0415,1.8908,-65.7563,3.2213,37.8,93584.0,,,,,,,
4.86,,,,,,,,,158.284,-5.667,0.484,-8.216,-0.367,547.65,-23.519
4.865,-0.0166,0.7007,-0.0044,1.6807,-62.535,2.9412,37.8,93533.0,,,,,,,
4.87,,,,,,,,,158.026,-5.713,0.478,-8.184,-0.37,550.75,-23.482
4.875,0.001,0.6938,-0.0483,1.4006,-62.2549,2.521,37.8,93511.0,,,,,,,
4.88,,,,,,,,,157.764,-5.757,0.473,-8.153,-0.373,550.84,-23.425
4.885,-0.0337,0.6978,-0.0308,2.8711,-63.0952,3.0812,37.8,93489.0,,,,,,,
4.89,,,,,,,,,157.508,-5.801,0.468,-8.123,-0.376,554.39,-23.387
4.895,-0.0093,0.7061,-0.0288,3.0812,-63.2353,2.2409,37.8,93464.0,,,,,,,
4.9,,,,,,,,,157.256,-5.845,0.462,-8.091,-0.378,556.88,-23.359
4.905,-0.0044,0.6826,-0.042,2.8711,-65.8964,1.7507,37.8,93419.0,,,,,,,
4.91,,,,,,,,,157.003,-5.889,0.456,-8.06,-0.379,557.94,-23.387
4.915,-0.001,0.6934,-0.0366,2.521,-69.8179,1.1204,37.8,93346.0,,,,,,,
4.92,,,,,,,,,156.758,-5.934,0.45,-8.026,-0.38,562.47,-23.359
4.925,-0.0342,0.6973,-0.0122,2.0308,-71.1485,0.7003,37.8,93346.0,,,,,,,
4.93,,,,,,,,,156.515,-5.983,0.446,-7.991,-0.382,564.43,-23.359
4.935,-0.0068,0.6802,-0.0454,2.1709,-69.8179,0.0,37.8,93314.0,,,,,,,
4.94,,,,,,,,,156.274,-6.032,0.441,-7.954,-0.384,566.38,-23.302
4.945,0.0049,0.6875,-0.0317,2.7311,-73.3894,-0.4902,37.8,93285.0,,,,,,,
4.95,,,,,,,,,156.036,-6.079,0.437,-7.918,-0.385,568.6,-23.293
4.955,-0.0049,0.6831,-0.0327,2.1709,-76.1905,-1.0504,37.8,93242.0,,,,,,,
4.96,,,,,,,,,155.805,-6.129,0.433,-7.879,-0.385,572.6,-23.227
4.965,-0.043,0.6821,-0.0269,2.1709,-80.4622,-1.1204,37.8,93187.0,,,,,,,
4.97,,,,,,,,,155.59,-6.181,0.43,-7.839,-0.386,579.09,-23.217
4.975,-0.0225,0.6826,-0.0254,1.4706,-77.6611,-2.451,37.8,93190.0,,,,,,,
4.98,,,,,,,,,155.37,-6.236,0.426,-7.796,-0.387,579.09,-23.104
4.985,-0.0039,0.6743,-0.0366,0.3501,-74.4398,-2.8011,37.8,93159.0,,,,,,,
4.99,,,,,,,,,155.156,-6.288,0.424,-7.754,-0.388,581.94,-23.019
4.995,-0.0381,0.6729,-0.043,0.4902,-76.8908,-2.6611,37.8,93092.0,,,,,,,
5.0,,,,,,,,,154.945,-6.338,0.422,-7.713,-0.388,584.52,-23.01
5.005,-0.0127,0.6748,-0.0215,-0.3501,-72.0588,-3.0112,37.8,93082.0,,,,,,,
5.01,,,,,,,,,154.74,-6.389,0.421,-7.671,-0.389,588.35,-23.01
5.015,-0.0127,0.6714,-0.0386,-1.4006,-71.8487,-3.2213,37.8,93066.0,,,,,,,
5.02,,,,,,,,,154.545,-6.436,0.42,-7.631,-0.391,592.98,-23.0
5.025,-0.0225,0.6758,-0.0229,-0.7703,-69.3978,-2.8011,37.8,93040.0,,,,,,,
5.03,,,,,,,,,154.346,-6.483,0.42,-7.591,-0.392,593.25,-22.962
5.035,-0.0034,0.6738,-0.0171,-1.3305,-71.4986,-2.9412,37.8,93006.0,,,,,,,
5.04,,,,,,,,,154.151,-6.529,0.419,-7.552,-0.394,595.74,-22.877
5.045,-0.0054,0.6597,-0.043,-1.8908,-72.3389,-2.1008,37.8,92978.0,,,,,,,
5.05,,,,,,,,,153.969,-6.575,0.419,-7.511,-0.396,601.71,-22.859
5.055,-0.0303,0.6572,-0.0635,-3.3613,-72.8291,-1.8908,37.8,92975.0,,,,,,,
5.06,,,,,,,,,153.784,-6.622,0.419,-7.47,-0.398,602.6,-22.849
5.065,-0.0225,0.6689,-0.0449,-2.381,-73.6695,-2.1709,37.8,92938.0,,,,,,,
5.07,,,,,,,,,153.6,-6.669,0.419,-7.428,-0.402,604.03,-22.84
5.075,-0.0161,0.6694,-0.0234,-3.0112,-72.6891,-1.5406,37.8,92910.0,,,,,,,
5.08,,,,,,,,,153.417,-6.716,0.419,-7.385,-0.405,606.35,-22.821
5.085,-0.0166,0.6523,-0.0327,-3.2213,-71.4286,-1.0504,37.8,92829.0,,,,,,,
5.09,,,,,,,,,153.239,-6.762,0.418,-7.343,-0.409,609.38,-22.792
5.095,-0.0122,0.6572,-0.0439,-3.2913,-74.0196,-1.1204,37.8,92816.0,,,,,,,
5.1,,,,,,,,,153.064,-6.807,0.418,-7.301,-0.413,611.88,-22.755
5.105,-0.001,0.6621,-0.0132,-3.2913,-73.3894,0.07,37.8,92820.0,,,,,,,
5.11,,,,,,,,,152.885,-6.853,0.417,-7.258,-0.417,612.15,-22.745
5.115,-0.0498,0.6694,-0.0527,-2.451,-75.2101,0.0,37.8,92809.0,,,,,,,
5.12,,,,,,,,,152.712,-6.899,0.416,-7.214,-0.422,615.45,-22.613
5.125,0.0015,0.6528,0.0063,-3.4314,-72.6891,0.5602,37.8,92744.0,,,,,,,
5.13,,,,,,,,,152.541,-6.945,0.414,-7.169,-0.426,617.95,-22.613
5.135,-0.061,0.6621,-0.0718,-3.6415,-74.6499,0.7703,37.8,92719.0,,,,,,,
5.14,,,,,,,,,152.388,-6.99,0.413,-7.125,-0.431,625.18,-22.566
5.145,-0.0205,0.6538,-0.0298,-2.9412,-71.6387,1.1204,37.8,92683.0,,,,,,,
5.15,,,,,,,,,152.232,-7.035,0.411,-7.08,-0.437,625.99,-22.613
5.155,-0.0151,0.6475,-0.0308,-1.6106,-73.0392,1.2605,37.8,92648.0,,,,,,,
5.16,,,,,,,,,152.071,-7.079,0.409,-7.036,-0.442,626.35,-22.613
5.165,-0.0459,0.6621,-0.0396,-3.2913,-72.7591,1.9608,37.8,92600.0,,,,,,,
5.17,,,,,,,,,151.909,-7.123,0.406,-6.992,-0.446,626.97,-22.519
5.175,0.0029,0.6509,-0.0415,-2.2409,-70.1681,2.521,37.8,92634.0,,,,,,,
5.18,,,,,,,,,151.759,-7.166,0.404,-6.947,-0.452,632.78,-22.519
5.185,-0.0298,0.6426,-0.0542,-3.2913,-71.1485,2.591,37.8,92572.0,,,,,,,
5.19,,,,,,,,,151.61,-7.208,0.4,-6.904,-0.457,635.02,-22.519
5.195,-0.0137,0.6587,-0.0376,-2.451,-70.5182,3.2913,37.8,92524.0,,,,,,,
5.2,,,,,,,,,151.467,-7.25,0.397,-6.859,-0.463,638.24,-22.453
5.205,0.0005,0.6489,-0.0332,-1.6807,-71.9188,2.8711,37.8,92523.0,,,,,,,
5.21,,,,,,,,,151.328,-7.291,0.394,-6.815,-0.469,641.37,-22.453
5.215,-0.0073,0.6455,-0.0386,-1.6807,-73.5294,3.4314,37.8,92462.0,,,,,,,
5.22,,,,,,,,,151.187,-7.333,0.39,-6.77,-0.475,642.62,-22.434
5.225,-0.0327,0.646,-0.0376,-1.6106,-72.0588,2.8011,37.8,92466.0,,,,,,,
5.23,,,,,,,,,151.051,-7.376,0.385,-6.723,-0.481,645.67,-22.396
5.235,-0.0098,0.644,-0.02,-1.3305,-70.9384,2.1709,37.8,92429.0,,,,,,,
5.24,,,,,,,,,150.918,-7.417,0.381,-6.677,-0.486,648.17,-22.358
5.245,-0.0327,0.645,-0.0547,-1.8908,-72.6891,1.8908,37.8,92402.0,,,,,,,
5.25,,,,,,,,,150.793,-7.458,0.377,-6.632,-0.49,652.47,-22.33
5.255,-0.0308,0.6401,-0.0303,-1.8207,-73.3894,1.5406,37.8,92347.0,,,,,,,
5.26,,,,,,,,,150.662,-7.499,0.374,-6.585,-0.495,652.56,-22.301
5.265,-0.0029,0.6299,-0.041,-1.3305,-69.958,1.4006,37.8,92311.0,,,,,,,
5.27,,,,,,,,,150.542,-7.54,0.37,-6.538,-0.5,657.67,-22.292
5.275,-0.0322,0.6411,-0.0459,-1.6807,-68.2073,1.8207,37.8,92277.0,,,,,,,
5.28,,,,,,,,,150.418,-7.58,0.367,-6.492,-0.504,658.03,-22.283
5.285,-0.0156,0.6421,-0.0288,-1.4006,-69.7479,0.6303,37.8,92229.0,,,,,,,
5.29,,,,,,,,,150.298,-7.617,0.363,-6.447,-0.508,660.99,-22.283
5.295,-0.001,0.6328,-0.0352,-2.381,-69.958,0.0,37.8,92240.0,,,,,,,
5.3,,,,,,,,,150.179,-7.656,0.36,-6.402,-0.511,663.41,-22.264
5.305,-0.0342,0.6411,-0.0371,-1.6106,-68.7675,-0.4902,37.8,92161.0,,,,,,,
5.31,,,,,,,,,150.071,-7.694,0.358,-6.355,-0.515,668.34,-22.226
5.315,-0.0063,0.625,-0.042,-1.4006,-67.9972,-0.7703,37.8,92168.0,,,,,,,
5.32,,,,,,,,,149.967,-7.732,0.356,-6.309,-0.518,671.57,-22.207
5.325,0.0054,0.6304,-0.042,-2.1709,-67.6471,-1.4006,37.8,92103.0,,,,,,,
5.33,,,,,,,,,149.866,-7.769,0.354,-6.264,-0.52,674.63,-22.207
5.335,-0.0244,0.6299,-0.022,-3.0112,-69.7479,-1.8207,37.8,92074.0,,,,,,,
5.34,,,,,,,,,149.771,-7.805,0.353,-6.219,-0.523,677.95,-22.188
5.345,-0.0151,0.6426,-0.0371,-2.591,-67.6471,-1.8908,37.8,92039.0,,,,,,,
5.35,,,,,,,,,149.674,-7.842,0.352,-6.171,-0.525,678.94,-22.047
5.355,-0.0327,0.6221,-0.0308,-2.381,-67.0168,-2.591,37.8,92031.0,,,,,,,
5.36,,,,,,,,,149.588,-7.878,0.351,-6.125,-0.528,684.42,-22.047
5.365,-0.0112,0.6294,-0.0449,-3.7115,-65.6863,-2.7311,37.8,91983.0,,,,,,,
5.37,,,,,,,,,149.499,-7.913,0.351,-6.08,-0.529,685.05,-22.047
5.375,0.0024,0.6216,-0.0581,-4.2017,-64.8459,-3.0812,37.8,91979.0,,,,,,,
5.38,,,,,,,,,149.42,-7.947,0.351,-6.035,-0.531,690.26,-21.999
5.385,-0.022,0.627,-0.0327,-2.0308,-66.4566,-2.8011,37.8,91944.0,,,,,,,
5.39,,,,,,,,,149.343,-7.981,0.352,-5.99,-0.534,692.87,-21.99
5.395,-0.0215,0.6167,-0.0225,-2.591,-66.8768,-2.8711,37.8,91896.0,,,,,,,
5.4,,,,,,,,,149.27,-8.015,0.352,-5.944,-0.535,696.02,-21.98
5.405,-0.0239,0.6265,-0.0596,-3.5714,-66.1765,-2.8711,37.8,91866.0,,,,,,,
5.41,,,,,,,,,149.195,-8.049,0.351,-5.898,-0.536,696.74,-21.933
5.415,-0.0273,0.6104,-0.0073,-1.6106,-64.4958,-2.381,37.8,91816.0,,,,,,,
5.42,,,,,,,,,149.126,-8.083,0.352,-5.851,-0.538,701.06,-21.933
5.425,-0.0088,0.627,-0.0127,-2.8011,-63.7255,-2.8711,37.8,91806.0,,,,,,,
5.43,,,,,,,,,149.053,-8.115,0.351,-5.806,-0.539,701.42,-21.924
5.435,-0.022,0.6177,-0.0737,-4.2017,-61.6947,-1.6106,37.8,91772.0,,,,,,,
5.44,,,,,,,,,148.984,-8.147,0.351,-5.762,-0.541,704.57,-21.924
5.445,-0.0029,0.6108,0.0098,-2.0308,-60.7843,-1.9608,37.8,91743.0,,,,,,,
5.45,,,,,,,,,148.923,-8.177,0.351,-5.718,-0.544,708.89,-21.839
5.455,-0.0229,0.6001,-0.0537,-1.4706,-63.6555,-1.6807,37.8,91715.0,,,,,,,
5.46,,,,,,,,,148.864,-8.207,0.35,-5.675,-0.545,711.6,-21.829
5.465,-0.0146,0.6167,-0.0571,-2.381,-59.2437,-0.7703,37.8,91701.0,,,,,,,
5.47,,,,,,,,,148.814,-8.238,0.349,-5.63,-0.547,716.1,-21.754
5.475,-0.0469,0.606,-0.0215,-1.7507,-60.5042,-0.9104,37.8,91664.0,,,,,,,
5.48,,,,,,,,,148.761,-8.267,0.347,-5.588,-0.55,717.0,-21.735
5.485,-0.019,0.6099,-0.0273,-2.0308,-60.2241,0.2801,37.8,91663.0,,,,,,,
5.49,,,,,,,,,148.711,-8.296,0.346,-5.545,-0.552,720.07,-21.735
5.495,-0.0073,0.6099,-0.0244,-1.9608,-63.0952,-0.07,37.8,91635.0,,,,,,,
5.5,,,,,,,,,148.665,-8.324,0.344,-5.502,-0.555,722.68,-21.622
5.505,-0.0195,0.6094,-0.0503,-2.521,-62.9552,0.5602,37.8,91583.0,,,,,,,
5.51,,,,,,,,,148.62,-8.354,0.342,-5.456,-0.558,725.21,-21.612
5.515,-0.0317,0.603,-0.0205,-1.0504,-60.2241,0.9804,37.8,91567.0,,,,,,,
5.52,,,,,,,,,148.573,-8.383,0.34,-5.411,-0.561,726.47,-21.603
5.525,-0.0195,0.6001,-0.0288,-1.6807,-60.084,0.7003,37.8,91540.0,,,,,,,
5.53,,,,,,,,,148.531,-8.411,0.337,-5.367,-0.565,729.81,-21.603
5.535,-0.0195,0.6104,-0.0601,-0.3501,-59.1737,1.2605,37.8,91517.0,,,,,,,
5.54,,,,,,,,,148.483,-8.438,0.334,-5.324,-0.568,729.9,-21.593
5.545,-0.0122,0.604,-0.002,0.6303,-58.7535,1.5406,37.8,91490.0,,,,,,,
5.55,,,,,,,,,148.436,-8.465,0.33,-5.281,-0.571,732.43,-21.593
5.555,-0.0156,0.6123,-0.0259,-1.5406,-60.2941,1.5406,37.8,91472.0,,,,,,,
5.56,,,,,,,,,148.398,-8.492,0.326,-5.238,-0.573,737.13,-21.593
5.565,-0.0063,0.5942,-0.0293,-0.07,-61.0644,2.2409,37.8,91412.0,,,,,,,
5.57,,,,,,,,,148.358,-8.519,0.323,-5.194,-0.577,738.57,-21.593
5.575,-0.019,0.5918,-0.0269,1.4706,-62.6751,1.9608,37.8,91384.0,,,,,,,
5.58,,,,,,,,,148.32,-8.546,0.318,-5.149,-0.581,741.01,-21.593
5.585,-0.0132,0.5952,-0.0391,0.9104,-60.5042,2.2409,37.8,91380.0,,,,,,,
5.59,,,,,,,,,148.283,-8.573,0.313,-5.103,-0.583,743.09,-21.489
5.595,-0.0161,0.5952,-0.0366,-0.6303,-61.2745,2.8011,37.8,91332.0,,,,,,,
5.6,,,,,,,,,148.248,-8.6,0.308,-5.059,-0.586,745.53,-21.471
5.605,-0.0122,0.5923,-0.0273,0.9804,-62.535,2.2409,37.8,91312.0,,,,,,,
5.61,,,,,,,,,148.212,-8.626,0.303,-5.014,-0.591,747.16,-21.414
5.615,-0.0483,0.5923,-0.0386,1.8207,-64.7059,1.9608,37.8,91260.0,,,,,,,
5.62,,,,,,,,,148.188,-8.653,0.298,-4.967,-0.594,752.59,-21.32
5.625,-0.0103,0.5923,-0.0322,-0.2801,-62.535,2.381,37.8,91248.0,,,,,,,
5.63,,,,,,,,,148.165,-8.68,0.292,-4.919,-0.596,755.12,-21.32
5.635,0.0024,0.5942,-0.0171,-0.1401,-65.6162,1.6106,37.8,91230.0,,,,,,,
5.64,,,,,,,,,148.137,-8.706,0.287,-4.873,-0.6,755.48,-21.301
5.645,-0.0386,0.585,-0.0508,-0.4202,-68.2073,1.9608,37.8,91200.0,,,,,,,
5.65,,,,,,,,,148.117,-8.734,0.283,-4.823,-0.603,759.83,-21.301
5.655,-0.0205,0.5903,-0.0259,-0.7003,-66.1064,1.9608,37.8,91176.0,,,,,,,
5.66,,,,,,,,,148.096,-8.762,0.278,-4.772,-0.607,761.64,-21.263
5.665,0.0166,0.5723,-0.0205,0.4902,-68.3473,1.4706,37.8,91128.0,,,,,,,
5.67,,,,,,,,,148.083,-8.789,0.274,-4.722,-0.61,766.35,-21.263
5.675,-0.062,0.5864,-0.041,-0.3501,-71.8487,1.4006,37.8,91096.0,,,,,,,
5.68,,,,,,,,,148.067,-8.816,0.269,-4.67,-0.613,767.44,-21.263
5.685,0.0327,0.5723,-0.0171,-1.4706,-68.4874,1.0504,37.8,91074.0,,,,,,,
5.69,,,,,,,,,148.05,-8.845,0.265,-4.616,-0.616,769.07,-21.263
5.695,-0.0303,0.5815,-0.0371,-2.0308,-68.6975,1.1905,37.8,91078.0,,,,,,,
5.7,,,,,,,,,148.036,-8.872,0.261,-4.563,-0.619,771.78,-21.225
5.705,-0.0234,0.5879,-0.0391,-2.1709,-71.4286,0.8403,37.8,90998.0,,,,,,,
5.71,,,,,,,,,148.023,-8.899,0.258,-4.511,-0.623,773.96,-21.15
5.715,-0.0317,0.5815,-0.0366,-1.2605,-71.6387,0.6303,37.8,90971.0,,,,,,,
5.72,,,,,,,,,148.017,-8.926,0.255,-4.456,-0.626,778.31,-21.15
5.725,-0.0093,0.5811,-0.0293,-1.2605,-70.098,0.0,37.8,90960.0,,,,,,,
5.73,,,,,,,,,148.013,-8.953,0.252,-4.401,-0.629,781.22,-21.121
5.735,-0.0054,0.5791,-0.0264,-0.4202,-70.8683,-0.07,37.8,90931.0,,,,,,,
5.74,,,,,,,,,148.009,-8.98,0.248,-4.347,-0.631,782.85,-21.055
5.745,-0.0337,0.5747,-0.0254,-0.4902,-70.3782,0.1401,37.8,90898.0,,,,,,,
5.75,,,,,,,,,148.0,-9.006,0.244,-4.292,-0.633,783.21,-21.055
5.755,-0.0186,0.5664,-0.0259,-1.9608,-68.1373,-0.2801,37.8,90856.0,,,,,,,
5.76,,,,,,,,,148.006,-9.032,0.24,-4.237,-0.635,790.11,-21.046
5.765,-0.002,0.5723,-0.0464,-0.7003,-68.9076,-0.2101,37.8,90845.0,,,,,,,
5.77,,,,,,,,,148.012,-9.056,0.238,-4.184,-0.637,792.56,-21.046
5.775,-0.0015,0.5669,-0.02,-1.1905,-71.5686,0.07,37.8,90783.0,,,,,,,
5.78,,,,,,,,,148.016,-9.081,0.234,-4.13,-0.638,793.56,-21.008
5.785,-0.0269,0.5767,-0.0391,-1.1905,-74.4398,-0.2101,37.8,90772.0,,,,,,,
5.79,,,,,,,,,148.021,-9.106,0.231,-4.074,-0.641,796.2,-21.008
5.795,-0.001,0.5684,-0.0137,-1.1905,-72.8992,-0.2801,37.8,90738.0,,,,,,,
5.8,,,,,,,,,148.03,-9.132,0.227,-4.015,-0.643,799.2,-20.961
5.805,-0.0337,0.5703,-0.0454,-0.9104,-74.2297,-0.4902,37.8,90728.0,,,,,,,
5.81,,,,,,,,,148.044,-9.157,0.224,-3.958,-0.644,803.01,-20.923
5.815,-0.0103,0.5698,-0.021,-3.1513,-70.6583,-0.3501,37.8,90655.0,,,,,,,
5.82,,,,,,,,,148.055,-9.182,0.22,-3.899,-0.646,804.02,-20.876
5.825,-0.0332,0.5708,-0.0322,-2.2409,-69.5378,-0.5602,37.8,90674.0,,,,,,,
5.83,,,,,,,,,148.077,-9.206,0.218,-3.843,-0.648,809.65,-20.838
5.835,-0.0205,0.5586,-0.0249,-1.5406,-69.6779,-0.6303,37.8,90635.0,,,,,,,
5.84,,,,,,,,,148.096,-9.229,0.216,-3.788,-0.65,810.66,-20.838
5.845,0.002,0.5698,-0.0557,-0.9804,-67.9272,-0.5602,37.8,90617.0,,,,,,,
5.85,,,,,,,,,148.118,-9.251,0.213,-3.732,-0.652,813.75,-20.829
5.855,-0.0493,0.5562,-0.0171,-0.3501,-67.577,-0.5602,37.8,90579.0,,,,,,,
5.86,,,,,,,,,148.137,-9.273,0.21,-3.678,-0.653,814.66,-20.829
5.865,-0.0049,0.5674,-0.0337,-1.8908,-67.1569,-0.6303,37.8,90536.0,,,,,,,
5.87,,,,,,,,,148.163,-9.294,0.206,-3.624,-0.654,819.58,-20.829
5.875,-0.0371,0.5571,-0.0479,-0.7003,-67.9972,-0.3501,37.8,90489.0,,,,,,,
5.88,,,,,,,,,148.189,-9.315,0.203,-3.57,-0.656,821.31,-20.829
5.885,-0.001,0.5547,-0.0034,-1.4706,-66.0364,-1.1204,37.8,90482.0,,,,,,,
5.89,,,,,,,,,148.213,-9.336,0.2,-3.515,-0.657,823.13,-20.8
5.895,0.0015,0.5552,-0.0444,-2.3109,-65.2661,-0.8403,37.8,90444.0,,,,,,,
5.9,,,,,,,,,148.237,-9.356,0.197,-3.462,-0.658,824.77,-20.781
5.905,-0.0239,0.5454,-0.021,-1.6807,-67.437,-0.4202,37.8,90418.0,,,,,,,
5.91,,,,,,,,,148.266,-9.375,0.195,-3.409,-0.659,828.23,-20.611
5.915,0.0103,0.5493,-0.0396,-1.0504,-70.1681,-1.5406,37.8,90397.0,,,,,,,
5.92,,,,,,,,,148.301,-9.395,0.192,-3.355,-0.661,832.15,-20.583
5.925,-0.021,0.5537,-0.0322,-1.1204,-69.958,-0.7003,37.8,90384.0,,,,,,,
5.93,,,,,,,,,148.342,-9.415,0.189,-3.298,-0.662,836.44,-20.564
5.935,0.001,0.5508,-0.0225,-1.3305,-70.8683,-0.8403,37.8,90351.0,,,,,,,
5.94,,,,,,,,,148.379,-9.434,0.186,-3.241,-0.663,837.08,-20.545
5.945,-0.0151,0.5498,-0.0156,-0.7703,-67.577,-0.5602,37.8,90320.0,,,,,,,
5.95,,,,,,,,,148.42,-9.454,0.183,-3.183,-0.664,840.54,-20.536
5.955,-0.0151,0.5503,-0.0308,-0.6303,-70.028,-1.1204,37.8,90262.0,,,,,,,
5.96,,,,,,,,,148.461,-9.472,0.179,-3.128,-0.665,842.92,-20.517
5.965,-0.0015,0.5415,-0.0312,-0.5602,-70.5882,-0.9804,37.8,90255.0,,,,,,,
5.97,,,,,,,,,148.503,-9.491,0.176,-3.071,-0.665,844.83,-20.46
5.975,-0.0381,0.5474,-0.0239,-0.9804,-70.7983,-0.4902,37.8,90225.0,,,,,,,
5.98,,,,,,,,,148.542,-9.51,0.172,-3.013,-0.666,846.02,-20.451
5.985,-0.019,0.5469,-0.0459,-2.381,-68.2073,-0.9104,37.8,90208.0,,,,,,,
5.99,,,,,,,,,148.583,-9.528,0.168,-2.955,-0.667,849.03,-20.441
5.995,-0.0117,0.5356,-0.0039,-0.3501,-69.3978,-0.4902,37.8,90204.0,,,,,,,
6.0,,,,,,,,,148.626,-9.545,0.166,-2.899,-0.668,851.87,-20.432
6.005,-0.0151,0.5332,-0.0298,-0.3501,-69.1176,-0.2801,37.8,90132.0,,,,,,,
6.01,,,,,,,,,148.679,-9.562,0.162,-2.842,-0.669,857.17,-20.432
6.015,-0.0444,0.5405,-0.0396,-0.6303,-69.6078,-0.4902,37.8,90160.0,,,,,,,
6.02,,,,,,,,,148.727,-9.579,0.158,-2.785,-0.67,857.81,-20.394
6.025,0.0244,0.5479,-0.0132,-1.2605,-68.6975,-0.7703,37.8,90111.0,,,,,,,
6.03,,,,,,,,,148.777,-9.595,0.154,-2.727,-0.671,860.55,-20.385
6.035,-0.0405,0.5347,-0.0444,-0.3501,-68.2773,0.1401,37.8,90074.0,,,,,,,
6.04,,,,,,,,,148.825,-9.611,0.151,-2.671,-0.672,862.1,-20.385
6.045,-0.0068,0.5381,-0.043,0.2101,-67.1569,-0.2101,37.8,90040.0,,,,,,,
6.05,,,,,,,,,148.869,-9.627,0.147,-2.614,-0.674,862.47,-20.281
6.055,-0.0112,0.5376,-0.022,-0.4202,-67.2969,0.3501,37.8,90001.0,,,,,,,
6.06,,,,,,,,,148.919,-9.642,0.143,-2.558,-0.675,866.49,-20.262
6.065,-0.0259,0.5386,-0.0063,0.0,-68.1373,0.4902,37.8,89996.0,,,,,,,
6.07,,,,,,,,,148.97,-9.657,0.139,-2.502,-0.676,869.05,-20.215
6.075,-0.0249,0.5371,-0.0415,-0.3501,-67.6471,-0.1401,37.8,89968.0,,,,,,,
6.08,,,,,,,,,149.02,-9.671,0.134,-2.446,-0.678,870.98,-20.215
6.085,0.0024,0.5293,-0.0239,0.1401,-64.7059,0.8403,37.8,89974.0,,,,,,,
6.09,,,,,,,,,149.074,-9.685,0.13,-2.389,-0.679,874.36,-20.205
6.095,-0.0332,0.5376,-0.0098,-0.5602,-66.3866,0.3501,37.8,89919.0,,,,,,,
6.1,,,,,,,,,149.131,-9.698,0.126,-2.335,-0.68,877.48,-20.205
6.105,-0.0205,0.5322,-0.0474,0.0,-67.2969,0.5602,37.8,89879.0,,,,,,,
6.11,,,,,,,,,149.191,-9.711,0.122,-2.28,-0.682,881.05,-20.205
6.115,0.0024,0.5298,-0.0264,0.9804,-64.2857,0.6303,37.8,89869.0,,,,,,,
6.12,,,,,,,,,149.247,-9.724,0.117,-2.224,-0.683,881.51,-20.205
6.125,-0.041,0.5254,-0.0396,0.9104,-67.7171,0.5602,37.8,89842.0,,,,,,,
6.13,,,,,,,,,149.302,-9.736,0.112,-2.17,-0.685,883.52,-20.196
6.135,0.0093,0.5249,-0.019,-0.1401,-66.5266,0.7003,37.8,89815.0,,,,,,,
6.14,,,,,,,,,149.352,-9.749,0.107,-2.113,-0.686,884.08,-20.196
6.145,-0.0493,0.5205,-0.042,-0.3501,-65.5462,0.4202,37.8,89785.0,,,,,,,
6.15,,,,,,,,,149.41,-9.761,0.103,-2.057,-0.687,888.56,-20.102
6.155,-0.001,0.5342,-0.0176,0.07,-64.0756,0.7003,37.8,89752.0,,,,,,,
6.16,,,,,,,,,149.472,-9.772,0.098,-2.002,-0.689,892.23,-20.054
6.165,-0.0142,0.5229,-0.0283,0.6303,-64.3557,0.4202,37.8,89738.0,,,,,,,
6.17,,,,,,,,,149.531,-9.783,0.094,-1.948,-0.69,893.15,-20.054
6.175,-0.0049,0.5205,-0.0234,0.9804,-65.4062,-0.07,37.8,89725.0,,,,,,,
6.18,,,,,,,,,149.59,-9.794,0.089,-1.894,-0.691,895.63,-20.045
6.185,-0.0132,0.5239,-0.0239,-0.4202,-64.7759,0.4202,37.8,89684.0,,,,,,,
6.19,,,,,,,,,149.651,-9.804,0.084,-1.839,-0.692,898.11,-19.969
6.195,-0.0293,0.5293,-0.0391,-0.8403,-68.5574,0.2101,37.8,89675.0,,,,,,,
6.2,,,,,,,,,149.714,-9.814,0.08,-1.785,-0.693,900.86,-19.96
6.205,0.0073,0.5146,-0.0186,-1.3305,-72.0588,-0.1401,37.8,89647.0,,,,,,,
6.21,,,,,,,,,149.779,-9.824,0.076,-1.727,-0.694,903.89,-19.96
6.215,-0.0176,0.5156,-0.0146,-1.4706,-73.8796,0.2101,37.8,89628.0,,,,,,,
6.22,,,,,,,,,149.842,-9.835,0.073,-1.665,-0.695,905.17,-19.941
6.225,-0.0127,0.52,-0.0347,-1.7507,-75.0,-0.4202,37.8,89589.0,,,,,,,
6.23,,,,,,,,,149.902,-9.845,0.069,-1.603,-0.696,906.37,-19.922
6.235,0.0161,0.5142,-0.0137,-1.1905,-76.6106,-0.2801,37.8,89565.0,,,,,,,
6.24,,,,,,,,,149.966,-9.855,0.066,-1.539,-0.697,910.13,-19.875
6.245,-0.0439,0.5063,-0.0386,-1.3305,-79.972,-0.07,37.8,89545.0,,,,,,,
6.25,,,,,,,,,150.027,-9.865,0.062,-1.474,-0.698,910.96,-19.875
6.255,-0.0093,0.5171,-0.0322,0.0,-77.8711,-0.4902,37.8,89510.0,,,,,,,
6.26,,,,,,,,,150.089,-9.875,0.058,-1.406,-0.699,913.53,-19.865
6.265,-0.0137,0.5122,-0.0244,0.8403,-75.8403,-0.3501,37.8,89519.0,,,,,,,
6.27,,,,,,,,,150.15,-9.884,0.053,-1.339,-0.699,915.28,-19.809
6.275,-0.0381,0.5083,-0.022,-1.4706,-77.6611,-0.4202,37.8,89430.0,,,,,,,
6.28,,,,,,,,,150.215,-9.893,0.047,-1.275,-0.699,918.87,-19.781
6.285,-0.001,0.5088,-0.0312,-0.8403,-77.591,-0.9104,37.8,89458.0,,,,,,,
6.29,,,,,,,,,150.281,-9.901,0.044,-1.208,-0.7,921.08,-19.762
6.295,-0.0225,0.5176,-0.0181,0.1401,-77.6611,-0.3501,37.8,89413.0,,,,,,,
6.3,,,,,,,,,150.345,-9.909,0.039,-1.142,-0.7,922.91,-19.752
6.305,-0.0161,0.5029,-0.0166,0.2101,-77.521,-0.4902,37.8,89396.0,,,,,,,
6.31,,,,,,,,,150.41,-9.917,0.034,-1.076,-0.7,925.31,-19.752
6.315,-0.0093,0.5127,-0.0254,0.2801,-74.5098,-0.7003,37.8,89352.0,,,,,,,
6.32,,,,,,,,,150.471,-9.924,0.029,-1.009,-0.7,926.14,-19.714
6.325,-0.0181,0.5083,-0.021,0.2101,-75.7703,-0.2801,37.8,89338.0,,,,,,,
6.33,,,,,,,,,150.539,-9.93,0.024,-0.946,-0.7,930.92,-19.714
6.335,-0.0088,0.5015,-0.0342,0.3501,-77.451,-0.7003,37.8,89326.0,,,,,,,
6.34,,,,,,,,,150.61,-9.936,0.019,-0.881,-0.7,933.5,-19.648
6.345,-0.0024,0.5044,-0.02,-0.3501,-77.591,-0.2101,37.8,89303.0,,,,,,,
6.35,,,,,,,,,150.678,-9.942,0.014,-0.814,-0.7,935.07,-19.648
6.355,-0.0288,0.5059,-0.0293,-1.3305,-79.5518,-0.1401,37.8,89280.0,,,,,,,
6.36,,,,,,,,,150.744,-9.947,0.009,-0.748,-0.7,936.63,-19.639
6.365,-0.0127,0.5024,-0.0234,-0.2101,-78.6415,-0.5602,37.8,89245.0,,,,,,,
6.37,,,,,,,,,150.816,-9.952,0.005,-0.679,-0.701,940.68,-19.639
6.375,-0.0356,0.5117,-0.0371,0.3501,-76.7507,0.2101,37.8,89235.0,,,,,,,
6.38,,,,,,,,,150.885,-9.956,0.0,-0.612,-0.701,941.98,-19.592
6.385,-0.0249,0.4946,-0.0293,0.7003,-75.3501,-0.2101,37.8,89216.0,,,,,,,
6.39,,,,,,,,,150.951,-9.96,-0.004,-0.546,-0.701,943.08,-19.592
6.395,-0.0518,0.5005,-0.0166,0.8403,-73.7395,-0.1401,37.8,89145.0,,,,,,,
6.4,,,,,,,,,151.017,-9.963,-0.01,-0.481,-0.701,945.2,-19.563
6.405,0.0107,0.501,-0.0479,-0.2801,-73.1092,-0.5602,37.8,89135.0,,,,,,,
6.41,,,,,,,,,151.083,-9.966,-0.015,-0.418,-0.701,947.32,-19.563
6.415,-0.0107,0.4941,-0.0078,1.6807,-75.4202,0.6303,37.8,89133.0,,,,,,,
6.42,,,,,,,,,151.152,-9.968,-0.02,-0.355,-0.701,950.55,-19.526
6.425,-0.0259,0.4966,-0.0107,-0.2801,-76.5406,0.2801,37.8,89091.0,,,,,,,
6.43,,,,,,,,,151.218,-9.971,-0.026,-0.291,-0.702,951.47,-19.507
6.435,0.0024,0.5005,-0.0322,2.0308,-75.07,-0.2801,37.8,89080.0,,,,,,,
6.44,,,,,,,,,151.282,-9.972,-0.031,-0.225,-0.702,953.23,-19.497
6.445,-0.0322,0.4893,-0.0098,2.381,-74.5098,0.4902,37.8,89049.0,,,,,,,
6.45,,,,,,,,,151.358,-9.973,-0.038,-0.16,-0.702,959.78,-19.488
6.455,-0.0269,0.5044,-0.0283,0.0,-72.7591,-0.2101,37.8,89036.0,,,,,,,
6.46,,,,,,,,,151.431,-9.974,-0.044,-0.096,-0.703,960.7,-19.488
6.465,0.001,0.4868,-0.0308,1.8908,-70.7983,0.1401,37.8,88958.0,,,,,,,
6.47,,,,,,,,,151.498,-9.975,-0.049,-0.034,-0.703,960.89,-19.488
6.475,-0.0337,0.4854,0.0078,0.07,-70.2381,0.5602,37.8,88979.0,,,,,,,
6.48,,,,,,,,,151.57,-9.975,-0.055,0.026,-0.703,964.77,-19.412
6.485,-0.0024,0.4873,-0.0327,-0.4202,-69.6078,-0.07,37.8,88930.0,,,,,,,
6.49,,,,,,,,,151.639,-9.974,-0.06,0.086,-0.704,965.78,-19.412
6.495,-0.0083,0.4922,-0.0078,0.4202,-68.6275,0.6303,37.8,88901.0,,,,,,,
6.5,,,,,,,,,151.71,-9.973,-0.064,0.146,-0.703,968.65,-19.365
6.505,-0.0303,0.4751,-0.021,-0.2101,-68.5574,0.2801,37.8,88911.0,,,,,,,
6.51,,,,,,,,,151.779,-9.972,-0.069,0.205,-0.704,969.85,-19.327
6.515,-0.0244,0.4927,-0.0425,-0.9104,-66.7367,0.0,37.8,88860.0,,,,,,,
6.52,,,,,,,,,151.856,-9.971,-0.073,0.264,-0.704,975.12,-19.271
6.525,-0.0107,0.4829,-0.0264,-1.3305,-64.7759,0.6303,37.8,88846.0,,,,,,,
6.53,,,,,,,,,151.933,-9.969,-0.077,0.321,-0.704,977.06,-19.271
6.535,-0.0278,0.4829,-0.0308,-0.2801,-67.2269,0.07,37.8,88821.0,,,,,,,
6.54,,,,,,,,,152.011,-9.967,-0.08,0.377,-0.705,979.65,-19.233
6.545,0.0098,0.4819,-0.0186,-0.4202,-67.2969,0.4202,37.8,88791.0,,,,,,,
6.55,,,,,,,,,152.088,-9.965,-0.084,0.434,-0.705,981.41,-19.223
6.555,-0.022,0.4771,-0.0205,0.4202,-68.2073,0.4202,37.8,88754.0,,,,,,,
6.56,,,,,,,,,152.161,-9.962,-0.088,0.492,-0.705,982.34,-19.195
6.565,-0.0151,0.481,-0.0298,-0.6303,-68.0672,0.0,37.8,88706.0,,,,,,,
6.57,,,,,,,,,152.239,-9.959,-0.093,0.551,-0.705,986.13,-19.148
6.575,-0.0137,0.4863,-0.0249,-0.9804,-67.0868,0.2101,37.8,88696.0,,,,,,,
6.58,,,,,,,,,152.314,-9.955,-0.097,0.609,-0.705,987.42,-19.148
6.585,-0.0347,0.4746,-0.0098,-1.3305,-66.5266,0.2801,37.8,88693.0,,,,,,,
6.59,,,,,,,,,152.39,-9.952,-0.1,0.666,-0.705,989.74,-19.148
6.595,-0.0029,0.4785,-0.0479,-1.1204,-65.1261,-0.1401,37.8,88667.0,,,,,,,
6.6,,,,,,,,,152.467,-9.948,-0.103,0.724,-0.705,992.52,-19.129
6.605,-0.0093,0.4746,-0.0098,-0.6303,-67.1569,0.1401,37.8,88660.0,,,,,,,
6.61,,,,,,,,,152.547,-9.944,-0.107,0.779,-0.705,995.95,-19.129
6.615,-0.0278,0.4746,-0.0049,-0.4902,-66.5266,0.3501,37.8,88625.0,,,,,,,
6.62,,,,,,,,,152.634,-9.939,-0.111,0.837,-0.705,1000.4,-19.11
6.625,-0.0054,0.4736,-0.042,-0.5602,-66.2465,-0.07,37.8,88607.0,,,,,,,
6.63,,,,,,,,,152.717,-9.934,-0.114,0.894,-0.705,1001.32,-19.063
6.635,-0.0029,0.4727,-0.0225,0.2801,-63.2353,0.4902,37.8,88569.0,,,,,,,
6.64,,,,,,,,,152.795,-9.929,-0.118,0.95,-0.704,1001.6,-19.035
6.645,-0.0215,0.4658,-0.0122,-1.4006,-64.986,0.4902,37.8,88548.0,,,,,,,
6.65,,,,,,,,,152.874,-9.923,-0.123,1.004,-0.704,1004.01,-18.987
6.655,-0.0073,0.4692,-0.0371,-0.9804,-67.2269,0.07,37.8,88549.0,,,,,,,
6.66,,,,,,,,,152.948,-9.917,-0.126,1.06,-0.705,1004.66,-18.987
6.665,-0.0142,0.4707,-0.0161,-0.2101,-68.4874,0.5602,37.8,88510.0,,,,,,,
6.67,,,,,,,,,153.026,-9.911,-0.129,1.117,-0.704,1007.91,-18.987
6.675,-0.0376,0.4717,-0.0312,-0.1401,-69.0476,0.3501,37.8,88427.0,,,,,,,
6.68,,,,,,,,,153.101,-9.904,-0.133,1.176,-0.704,1009.58,-18.969
6.685,-0.02,0.4746,-0.0278,-0.2801,-69.1176,0.07,37.8,88453.0,,,,,,,
6.69,,,,,,,,,153.18,-9.897,-0.138,1.235,-0.704,1013.1,-18.95
6.695,-0.0127,0.4653,-0.0117,-1.3305,-67.507,0.2101,37.8,88439.0,,,,,,,
6.7,,,,,,,,,153.259,-9.889,-0.142,1.294,-0.704,1014.96,-18.95
6.705,-0.022,0.4736,-0.0293,-1.9608,-68.8375,0.1401,37.8,88360.0,,,,,,,
6.71,,,,,,,,,153.331,-9.882,-0.145,1.351,-0.703,1015.05,-18.931
6.715,-0.0024,0.4692,-0.0146,-0.2101,-68.6275,-0.2801,37.8,88391.0,,,,,,,
6.72,,,,,,,,,153.407,-9.873,-0.148,1.41,-0.703,1018.58,-18.931
6.725,-0.0049,0.4551,-0.0181,-1.4706,-67.6471,0.0,37.8,88343.0,,,,,,,
6.73,,,,,,,,,153.491,-9.865,-0.152,1.468,-0.702,1023.88,-18.912
6.735,-0.0171,0.4609,-0.0186,-1.1905,-70.4482,0.0,37.8,88329.0,,,,,,,
6.74,,,,,,,,,153.573,-9.856,-0.155,1.526,-0.702,1025.18,-18.884
6.745,0.0107,0.4585,-0.0312,-0.4902,-68.5574,-0.2801,37.8,88301.0,,,,,,,
6.75,,,,,,,,,153.652,-9.847,-0.158,1.585,-0.701,1026.29,-18.884
6.755,-0.0391,0.4609,-0.0122,0.3501,-69.4678,-0.2801,37.8,88326.0,,,,,,,
6.76,,,,,,,,,153.734,-9.837,-0.162,1.644,-0.7,1029.64,-18.884
6.765,-0.0137,0.4614,-0.0156,-1.2605,-67.1569,-0.3501,37.8,88244.0,,,,,,,
6.77,,,,,,,,,153.818,-9.827,-0.167,1.702,-0.699,1032.52,-18.808
6.775,-0.0044,0.4551,-0.0308,0.4202,-67.9272,-0.4902,37.8,88205.0,,,,,,,
6.78,,,,,,,,,153.901,-9.817,-0.171,1.759,-0.698,1034.1,-18.732
6.785,-0.0303,0.4575,-0.0161,-0.3501,-67.7871,-0.4902,37.8,88209.0,,,,,,,
6.79,,,,,,,,,153.981,-9.807,-0.175,1.817,-0.697,1035.4,-18.723
6.795,0.0054,0.4639,-0.0264,-0.3501,-69.958,-0.6303,37.8,88212.0,,,,,,,
6.8,,,,,,,,,154.056,-9.796,-0.179,1.874,-0.696,1035.68,-18.723
6.805,-0.0361,0.4624,-0.0215,0.1401,-71.9888,-0.2801,37.8,88169.0,,,,,,,
6.81,,,,,,,,,154.131,-9.784,-0.184,1.933,-0.695,1038.01,-18.723
6.815,-0.0117,0.4521,-0.0288,0.1401,-72.1289,-0.4202,37.8,88131.0,,,,,,,
6.82,,,,,,,,,154.215,-9.772,-0.188,1.993,-0.694,1043.31,-18.723
6.825,-0.0171,0.4561,-0.0103,0.2801,-72.9692,-0.5602,37.8,88125.0,,,,,,,
6.83,,,,,,,,,154.3,-9.76,-0.193,2.054,-0.693,1046.29,-18.723
6.835,-0.0093,0.4502,-0.02,-0.3501,-72.6891,-0.4902,37.8,88099.0,,,,,,,
6.84,,,,,,,,,154.38,-9.747,-0.198,2.115,-0.692,1046.57,-18.676
6.845,-0.0142,0.4546,-0.0293,-0.2101,-72.549,-0.4902,37.8,88081.0,,,,,,,
6.85,,,,,,,,,154.455,-9.733,-0.202,2.176,-0.691,1046.95,-18.657
6.855,-0.0503,0.4473,-0.0093,0.2801,-72.549,-0.2801,37.8,88037.0,,,,,,,
6.86,,,,,,,,,154.534,-9.719,-0.207,2.237,-0.689,1050.3,-18.629
6.865,0.0049,0.4546,-0.0288,-0.5602,-69.1176,-0.6303,37.8,88051.0,,,,,,,
6.87,,,,,,,,,154.616,-9.705,-0.212,2.298,-0.688,1053.84,-18.61
6.875,-0.0259,0.4536,-0.0059,0.8403,-69.6779,-0.1401,37.8,87969.0,,,,,,,
6.88,,,,,,,,,154.693,-9.691,-0.216,2.356,-0.687,1054.4,-18.6
6.885,0.0059,0.4429,-0.022,0.0,-69.3277,-0.6303,37.8,87954.0,,,,,,,
6.89,,,,,,,,,154.771,-9.677,-0.221,2.414,-0.686,1056.82,-18.6
6.895,-0.0034,0.4556,-0.02,0.1401,-71.9188,-0.07,37.8,87973.0,,,,,,,
6.9,,,,,,,,,154.847,-9.662,-0.225,2.471,-0.685,1058.5,-18.581
6.905,-0.0244,0.4424,-0.0112,0.07,-74.0896,0.1401,37.8,87912.0,,,,,,,
6.91,,,,,,,,,154.925,-9.647,-0.23,2.531,-0.684,1061.3,-18.581
6.915,-0.0059,0.4434,-0.0215,-0.07,-73.4594,-0.3501,37.8,87911.0,,,,,,,
6.92,,,,,,,,,155.0,-9.63,-0.234,2.593,-0.683,1062.6,-18.581
6.925,-0.0293,0.4473,-0.0229,0.3501,-72.0588,0.2801,37.8,87878.0,,,,,,,
6.93,,,,,,,,,155.087,-9.614,-0.239,2.654,-0.682,1068.58,-18.515
6.935,-0.0171,0.4487,-0.0146,0.07,-71.9888,0.2801,37.8,87868.0,,,,,,,
6.94,,,,,,,,,155.168,-9.597,-0.243,2.713,-0.681,1068.95,-18.459
6.945,-0.0166,0.439,-0.043,0.4202,-72.7591,0.07,37.8,87834.0,,,,,,,
6.95,,,,,,,,,155.247,-9.58,-0.248,2.773,-0.68,1070.35,-18.459
6.955,-0.0234,0.4497,-0.0015,-0.2101,-69.888,0.6303,37.8,87813.0,,,,,,,
6.96,,,,,,,,,155.33,-9.562,-0.253,2.833,-0.679,1074.27,-18.459
6.965,-0.0273,0.438,-0.0176,0.1401,-72.2689,0.3501,37.8,87785.0,,,,,,,
6.97,,,,,,,,,155.408,-9.545,-0.257,2.89,-0.678,1074.36,-18.459
6.975,-0.0034,0.4419,-0.0151,-0.6303,-70.4482,0.4202,37.8,87766.0,,,,,,,
6.98,,,,,,,,,155.488,-9.527,-0.261,2.95,-0.678,1077.44,-18.383
6.985,-0.042,0.4438,-0.0303,-0.3501,-71.4286,0.9804,37.8,87762.0,,,,,,,
6.99,,,,,,,,,155.565,-9.509,-0.265,3.007,-0.677,1078.38,-18.383
6.995,0.0068,0.438,-0.0171,-0.2101,-70.1681,0.5602,37.8,87741.0,,,,,,,
7.0,,,,,,,,,155.644,-9.49,-0.269,3.066,-0.676,1081.55,-18.383
7.005,-0.0107,0.4346,-0.0117,-0.2101,-72.3389,1.0504,37.8,87727.0,,,,,,,
7.01,,,,,,,,,155.722,-9.471,-0.272,3.123,-0.676,1083.52,-18.383
7.015,-0.0146,0.439,-0.02,-0.7003,-71.9188,1.5406,37.8,87687.0,,,,,,,
7.02,,,,,,,,,155.801,-9.451,-0.276,3.182,-0.675,1086.13,-18.355
7.025,-0.021,0.4297,-0.0254,0.2801,-72.619,1.3305,37.8,87661.0,,,,,,,
7.03,,,,,,,,,155.88,-9.431,-0.28,3.241,-0.675,1087.91,-18.298
7.035,-0.0293,0.4336,-0.019,-1.3305,-69.1877,1.5406,37.8,87628.0,,,,,,,
7.04,,,,,,,,,155.953,-9.411,-0.284,3.3,-0.675,1088.28,-18.298
7.045,-0.043,0.439,-0.0474,-0.4202,-67.507,1.6106,37.8,87627.0,,,,,,,
7.05,,,,,,,,,156.026,-9.391,-0.287,3.356,-0.675,1090.25,-18.279
7.055,-0.019,0.4292,-0.0112,0.3501,-65.9664,1.3305,37.8,87584.0,,,,,,,
7.06,,,,,,,,,156.096,-9.371,-0.29,3.411,-0.675,1091.56,-18.279
7.065,-0.0029,0.4268,-0.0156,-0.07,-65.3361,1.6106,37.8,87584.0,,,,,,,
7.07,,,,,,,,,156.17,-9.351,-0.294,3.464,-0.675,1095.3,-18.279
7.075,-0.0254,0.4399,-0.0376,-0.7703,-64.4958,1.5406,37.8,87577.0,,,,,,,
7.08,,,,,,,,,156.245,-9.332,-0.297,3.516,-0.675,1097.73,-18.213
7.085,0.0059,0.4307,0.0059,0.7003,-66.2465,1.0504,37.8,87534.0,,,,,,,
7.09,,,,,,,,,156.323,-9.312,-0.3,3.568,-0.674,1100.82,-18.213
7.095,-0.0088,0.4302,-0.0356,-0.07,-65.8263,0.9804,37.9,87507.0,,,,,,,
7.1,,,,,,,,,156.395,-9.291,-0.304,3.621,-0.674,1100.92,-18.194
7.105,-0.022,0.4268,-0.0132,0.3501,-66.7367,1.1905,37.8,87493.0,,,,,,,
7.11,,,,,,,,,156.472,-9.27,-0.308,3.674,-0.674,1104.94,-18.138
7.115,-0.0059,0.4238,-0.0024,0.8403,-69.3277,0.2801,37.8,87450.0,,,,,,,
7.12,,,,,,,,,156.543,-9.249,-0.312,3.727,-0.674,1104.94,-18.128
7.125,-0.0317,0.4224,-0.0259,0.9104,-69.888,0.6303,37.8,87435.0,,,,,,,
7.13,,,,,,,,,156.609,-9.227,-0.317,3.782,-0.673,1105.6,-18.128
7.135,-0.0322,0.4346,-0.0249,-0.3501,-67.437,0.2801,37.8,87394.0,,,,,,,
7.14,,,,,,,,,156.681,-9.204,-0.321,3.838,-0.672,1109.63,-18.109
7.145,-0.002,0.4219,-0.0024,0.6303,-67.7871,-0.4202,37.8,87376.0,,,,,,,
7.15,,,,,,,,,156.753,-9.181,-0.325,3.891,-0.671,1112.16,-18.109
7.155,-0.0029,0.4272,-0.0225,0.3501,-68.2773,-0.2101,37.8,87323.0,,,,,,,
7.16,,,,,,,,,156.823,-9.158,-0.33,3.944,-0.669,1113.47,-18.062
7.165,-0.0352,0.4199,-0.0176,0.7003,-69.2577,-0.2801,37.8,87306.0,,,,,,,
7.17,,,,,,,,,156.899,-9.135,-0.334,3.998,-0.668,1117.5,-18.072
7.175,0.0156,0.4243,-0.0186,0.2101,-70.098,-0.9104,37.8,87288.0,,,,,,,
7.18,,,,,,,,,156.971,-9.111,-0.339,4.052,-0.666,1118.91,-18.062
7.185,-0.0215,0.4155,-0.0205,0.2801,-72.3389,-0.07,37.8,87276.0,,,,,,,
7.19,,,,,,,,,157.049,-9.086,-0.343,4.107,-0.664,1122.76,-18.015
7.195,-0.021,0.4165,-0.0107,-0.4202,-73.8095,-0.7703,37.8,87283.0,,,,,,,
7.2,,,,,,,,,157.125,-9.06,-0.348,4.164,-0.662,1124.44,-18.005
7.205,-0.0005,0.4214,-0.0293,-0.07,-73.3894,-1.1204,37.8,87248.0,,,,,,,
7.21,,,,,,,,,157.209,-9.034,-0.352,4.221,-0.66,1129.42,-17.977
7.215,-0.042,0.4204,-0.0098,0.2101,-71.7087,-0.4202,37.8,87246.0,,,,,,,
7.22,,,,,,,,,157.291,-9.007,-0.357,4.278,-0.657,1131.02,-17.968
7.225,0.002,0.4106,-0.021,-0.8403,-69.6078,-1.1905,37.8,87205.0,,,,,,,
7.23,,,,,,,,,157.372,-8.98,-0.361,4.334,-0.655,1132.7,-17.958
7.235,-0.0137,0.4219,-0.0371,-1.7507,-70.4482,-0.8403,37.8,87174.0,,,,,,,
7.24,,,,,,,,,157.447,-8.954,-0.365,4.388,-0.652,1133.17,-17.939
7.245,-0.0171,0.4126,-0.0063,-0.8403,-70.028,-0.5602,37.8,87163.0,,,,,,,
7.25,,,,,,,,,157.518,-8.927,-0.368,4.442,-0.649,1133.83,-17.939
7.255,-0.0122,0.4116,-0.002,-0.3501,-71.3585,-0.9104,37.8,87132.0,,,,,,,
7.26,,,,,,,,,157.591,-8.9,-0.372,4.496,-0.647,1136.46,-17.93
7.265,-0.0229,0.4136,-0.0381,-0.3501,-71.3585,-0.7703,37.8,87121.0,,,,,,,
7.27,,,,,,,,,157.658,-8.873,-0.376,4.551,-0.644,1136.65,-17.864
7.275,-0.04,0.4189,-0.0249,0.4902,-71.2185,-0.7703,37.8,87115.0,,,,,,,
7.28,,,,,,,,,157.73,-8.844,-0.38,4.605,-0.642,1140.5,-17.845
7.285,0.019,0.4136,-0.0015,-0.2101,-68.7675,-0.6303,37.8,87077.0,,,,,,,
7.29,,,,,,,,,157.803,-8.816,-0.385,4.659,-0.639,1143.42,-17.864
7.295,-0.0415,0.4043,-0.0278,0.0,-71.2885,-0.2801,37.8,87035.0,,,,,,,
7.3,,,,,,,,,157.874,-8.788,-0.389,4.711,-0.637,1144.45,-17.807
7.305,-0.0029,0.4097,-0.0161,-0.3501,-67.9972,-0.5602,37.8,87039.0,,,,,,,
7.31,,,,,,,,,157.946,-8.759,-0.393,4.765,-0.635,1147.37,-17.807
7.315,-0.0288,0.4072,-0.0366,-0.2101,-68.9076,0.07,37.8,87011.0,,,,,,,
7.32,,,,,,,,,158.015,-8.731,-0.397,4.816,-0.633,1148.4,-17.788
7.325,0.0039,0.4155,-0.0049,0.8403,-69.0476,-0.1401,37.8,86986.0,,,,,,,
7.33,,,,,,,,,158.079,-8.702,-0.4,4.868,-0.631,1148.97,-17.788
7.335,-0.0303,0.395,-0.0103,0.07,-70.1681,0.5602,37.8,86988.0,,,,,,,
7.34,,,,,,,,,158.148,-8.673,-0.405,4.92,-0.629,1152.54,-17.788
7.345,-0.0171,0.4146,-0.0312,-0.4902,-69.7479,0.07,37.8,86950.0,,,,,,,
7.35,,,,,,,,,158.22,-8.643,-0.409,4.972,-0.628,1156.12,-17.769
7.355,-0.0156,0.4116,-0.0005,0.7003,-67.8571,0.6303,37.8,86997.0,,,,,,,
7.36,,,,,,,,,158.286,-8.613,-0.412,5.024,-0.625,1156.5,-17.807
7.365,-0.0122,0.3955,-0.0132,0.7003,-69.0476,0.2801,37.8,86941.0,,,,,,,
7.37,,,,,,,,,158.353,-8.583,-0.416,5.074,-0.624,1158.76,-17.769
7.375,-0.0283,0.4126,-0.0425,-0.2101,-69.1176,0.3501,37.8,86921.0,,,,,,,
7.38,,,,,,,,,158.417,-8.553,-0.42,5.125,-0.623,1160.07,-17.732
7.385,-0.0156,0.4019,0.0039,1.1905,-66.3165,0.7003,37.9,86918.0,,,,,,,
7.39,,,,,,,,,158.478,-8.522,-0.424,5.176,-0.621,1160.92,-17.732
7.395,-0.0151,0.4087,-0.0244,0.2101,-68.0672,0.4902,37.8,86852.0,,,,,,,
7.4,,,,,,,,,158.533,-8.493,-0.428,5.224,-0.62,1161.11,-17.732
7.405,-0.0103,0.3936,-0.02,0.4202,-67.6471,1.2605,37.8,86872.0,,,,,,,
7.41,,,,,,,,,158.591,-8.462,-0.431,5.274,-0.619,1164.5,-17.713
7.415,-0.0249,0.395,-0.0176,1.3305,-69.8179,0.7003,37.8,86814.0,,,,,,,
7.42,,,,,,,,,158.646,-8.431,-0.435,5.323,-0.618,1165.35,-17.713
7.425,0.0029,0.3936,-0.0122,0.0,-71.0084,1.1204,37.8,86791.0,,,,,,,
7.43,,,,,,,,,158.701,-8.398,-0.439,5.374,-0.617,1167.23,-17.581
7.435,-0.0254,0.3999,-0.0205,-0.9804,-73.5994,1.1204,37.8,86778.0,,,,,,,
7.44,,,,,,,,,158.75,-8.365,-0.442,5.425,-0.615,1167.51,-17.581
7.445,0.0137,0.3931,-0.0146,-0.4202,-73.6695,0.7703,37.8,86774.0,,,,,,,
7.45,,,,,,,,,158.806,-8.331,-0.445,5.478,-0.613,1171.85,-17.543
7.455,-0.0293,0.3936,-0.0254,-1.4706,-75.2801,1.4706,37.8,86779.0,,,,,,,
7.46,,,,,,,,,158.862,-8.296,-0.448,5.531,-0.611,1173.74,-17.458
7.465,-0.0249,0.3965,-0.0161,0.3501,-75.3501,0.8403,37.8,86736.0,,,,,,,
7.47,,,,,,,,,158.922,-8.259,-0.451,5.585,-0.609,1177.32,-17.448
7.475,0.0029,0.3975,-0.0073,1.0504,-75.3501,0.9804,37.8,86689.0,,,,,,,
7.48,,,,,,,,,158.981,-8.223,-0.455,5.639,-0.608,1179.49,-17.448
7.485,-0.0415,0.3921,-0.0181,-0.3501,-73.2493,1.1905,37.8,86695.0,,,,,,,
7.49,,,,,,,,,159.038,-8.186,-0.459,5.692,-0.606,1180.62,-17.448
7.495,0.0005,0.397,-0.0259,-0.1401,-71.1485,0.5602,37.8,86663.0,,,,,,,
7.5,,,,,,,,,159.089,-8.15,-0.462,5.744,-0.605,1180.72,-17.42
7.505,-0.0146,0.3887,-0.0034,0.6303,-73.3193,1.3305,37.9,86652.0,,,,,,,
7.51,,,,,,,,,159.134,-8.114,-0.465,5.793,-0.603,1181.1,-17.448
7.515,-0.0122,0.3857,-0.0288,0.4202,-74.5798,0.4902,37.8,86634.0,,,,,,,
7.52,,,,,,,,,159.184,-8.077,-0.469,5.845,-0.602,1184.68,-17.42
7.525,-0.0249,0.3896,-0.0063,0.5602,-75.3501,0.3501,37.9,86616.0,,,,,,,
7.53,,,,,,,,,159.238,-8.04,-0.473,5.896,-0.6,1188.55,-17.42
7.535,0.0068,0.3853,-0.001,0.8403,-73.1793,0.4202,37.8,86594.0,,,,,,,
7.54,,,,,,,,,159.288,-8.001,-0.477,5.948,-0.598,1189.12,-17.411
7.545,-0.0322,0.3936,-0.0361,0.8403,-72.619,0.3501,37.8,86570.0,,,,,,,
7.55,,,,,,,,,159.339,-7.963,-0.481,5.999,-0.596,1191.58,-17.392
7.555,-0.0239,0.3916,-0.0195,2.451,-71.0084,0.4202,37.8,86518.0,,,,,,,
7.56,,,,,,,,,159.386,-7.925,-0.485,6.048,-0.594,1192.61,-17.392
7.565,-0.0151,0.3804,-0.0034,0.2801,-68.7675,0.2101,37.8,86513.0,,,,,,,
7.57,,,,,,,,,159.432,-7.888,-0.49,6.097,-0.593,1194.32,-17.382
7.575,-0.0049,0.3828,-0.0396,1.3305,-67.2269,0.2801,37.8,86489.0,,,,,,,
7.58,,,,,,,,,159.478,-7.852,-0.494,6.143,-0.591,1196.02,-17.345
7.585,-0.0298,0.3901,-0.0059,1.1204,-68.6275,0.4902,37.8,86479.0,,,,,,,
7.59,,,,,,,,,159.523,-7.816,-0.498,6.189,-0.589,1198.1,-17.326
7.595,0.0059,0.3853,-0.0005,-0.5602,-67.7171,0.2101,37.8,86459.0,,,,,,,
7.6,,,,,,,,,159.568,-7.779,-0.502,6.235,-0.588,1200.36,-17.326
7.605,-0.0405,0.3877,-0.0366,0.4202,-68.4174,0.6303,37.8,86439.0,,,,,,,
7.61,,,,,,,,,159.622,-7.743,-0.505,6.28,-0.585,1205.28,-17.269
7.615,-0.0054,0.3784,0.0044,2.381,-67.2969,0.2801,37.8,86421.0,,,,,,,
7.62,,,,,,,,,159.67,-7.705,-0.508,6.326,-0.584,1205.76,-17.307
7.625,0.0103,0.3789,-0.02,0.6303,-67.2269,0.1401,37.8,86396.0,,,,,,,
7.63,,,,,,,,,159.719,-7.668,-0.513,6.37,-0.583,1208.03,-17.26
7.635,-0.0381,0.3877,-0.0288,-0.2101,-70.028,0.4202,37.8,86402.0,,,,,,,
7.64,,,,,,,,,159.764,-7.631,-0.517,6.414,-0.581,1208.97,-17.26
7.645,-0.0029,0.375,0.0005,1.3305,-69.958,0.0,37.8,86365.0,,,,,,,
7.65,,,,,,,,,159.809,-7.593,-0.52,6.46,-0.578,1210.86,-17.26
7.655,-0.0244,0.375,-0.0234,0.1401,-70.2381,0.2101,37.8,86320.0,,,,,,,
7.66,,,,,,,,,159.853,-7.553,-0.524,6.506,-0.576,1212.76,-17.212
7.665,-0.0127,0.3848,-0.0239,1.4706,-69.958,0.1401,37.8,86288.0,,,,,,,
7.67,,,,,,,,,159.896,-7.514,-0.528,6.551,-0.574,1214.46,-17.212
7.675,-0.0078,0.376,-0.001,0.4902,-71.5686,0.1401,37.8,86305.0,,,,,,,
7.68,,,,,,,,,159.937,-7.474,-0.532,6.596,-0.572,1216.26,-17.25
7.685,-0.0063,0.3818,-0.0278,0.5602,-73.8095,0.2801,37.8,86305.0,,,,,,,
7.69,,,,,,,,,159.976,-7.433,-0.536,6.642,-0.57,1216.83,-17.137
7.695,-0.0181,0.374,-0.021,0.7703,-74.3697,0.3501,37.8,86262.0,,,,,,,
7.7,,,,,,,,,160.016,-7.391,-0.539,6.69,-0.567,1219.77,-17.137
7.705,-0.0239,0.3696,-0.0156,1.2605,-73.5994,0.2801,37.8,86232.0,,,,,,,
7.71,,,,,,,,,160.062,-7.348,-0.543,6.737,-0.565,1224.03,-17.127
7.715,-0.0063,0.3828,-0.0249,0.9104,-70.5882,0.0,37.8,86191.0,,,,,,,
7.72,,,,,,,,,160.106,-7.305,-0.548,6.783,-0.563,1225.45,-17.08
7.725,-0.0308,0.374,-0.0137,0.5602,-71.5686,0.7703,37.8,86212.0,,,,,,,
7.73,,,,,,,,,160.145,-7.263,-0.551,6.827,-0.561,1225.45,-17.08
7.735,-0.0059,0.3643,0.0039,0.9804,-73.3193,-0.2801,37.8,86195.0,,,,,,,
7.74,,,,,,,,,160.182,-7.221,-0.555,6.872,-0.559,1227.06,-17.061
7.745,0.0215,0.3765,-0.0029,0.2101,-73.3894,-0.07,37.8,86175.0,,,,,,,
7.75,,,,,,,,,160.22,-7.177,-0.559,6.918,-0.556,1229.53,-17.061
7.755,-0.0371,0.3687,-0.0117,-0.1401,-76.8908,0.4902,37.8,86156.0,,,,,,,
7.76,,,,,,,,,160.259,-7.133,-0.563,6.963,-0.553,1232.37,-17.08
7.765,0.0093,0.374,-0.0308,-0.7003,-75.4902,-0.5602,37.8,86137.0,,,,,,,
7.77,,,,,,,,,160.299,-7.087,-0.566,7.01,-0.55,1234.27,-17.042
7.775,-0.0107,0.3643,-0.001,0.8403,-76.3305,0.4202,37.8,86126.0,,,,,,,
7.78,,,,,,,,,160.336,-7.041,-0.569,7.056,-0.546,1235.88,-17.042
7.785,0.0034,0.3721,-0.0278,1.1204,-77.0308,-0.2101,37.8,86124.0,,,,,,,
7.79,,,,,,,,,160.369,-6.994,-0.573,7.102,-0.544,1236.26,-17.042
7.795,-0.0464,0.3672,-0.0132,1.0504,-77.1709,0.4202,37.8,86073.0,,,,,,,
7.8,,,,,,,,,160.4,-6.947,-0.577,7.148,-0.541,1237.78,-17.005
7.805,0.0034,0.3745,-0.0093,-0.9104,-74.5098,-0.1401,37.8,86061.0,,,,,,,
7.81,,,,,,,,,160.43,-6.899,-0.581,7.195,-0.538,1239.58,-17.005
7.815,-0.0215,0.3643,-0.0107,-0.7703,-76.1204,0.2101,37.9,86014.0,,,,,,,
7.82,,,,,,,,,160.46,-6.853,-0.584,7.239,-0.534,1241.39,-17.005
7.825,-0.0146,0.3691,-0.0083,0.0,-74.7899,0.2101,37.8,86024.0,,,,,,,
7.83,,,,,,,,,160.487,-6.805,-0.587,7.284,-0.531,1242.43,-16.939
7.835,-0.0093,0.3647,-0.0278,0.0,-76.1905,0.0,37.8,85992.0,,,,,,,
7.84,,,,,,,,,160.508,-6.758,-0.59,7.327,-0.528,1242.62,-16.948
7.845,-0.0186,0.3628,-0.002,0.7703,-75.07,0.2801,37.8,85990.0,,,,,,,
7.85,,,,,,,,,160.537,-6.709,-0.594,7.372,-0.524,1247.47,-16.939
7.855,-0.0063,0.3623,-0.0107,1.7507,-73.8095,0.2101,37.9,85980.0,,,,,,,
7.86,,,,,,,,,160.564,-6.662,-0.597,7.415,-0.521,1248.6,-16.91
7.865,-0.0205,0.3643,-0.0254,0.7003,-75.07,0.1401,37.8,85938.0,,,,,,,
7.87,,,,,,,,,160.595,-6.614,-0.601,7.457,-0.519,1252.12,-16.863
7.875,-0.0093,0.3608,-0.0078,1.3305,-74.7899,0.2101,37.8,85907.0,,,,,,,
7.88,,,,,,,,,160.623,-6.566,-0.605,7.5,-0.517,1253.07,-16.863
7.885,-0.0303,0.3652,-0.021,0.7703,-75.07,0.3501,37.9,85927.0,,,,,,,
7.89,,,,,,,,,160.65,-6.517,-0.609,7.542,-0.514,1255.16,-16.854
7.895,-0.022,0.355,-0.0132,1.4706,-75.7003,0.1401,37.8,85910.0,,,,,,,
7.9,,,,,,,,,160.672,-6.468,-0.612,7.584,-0.511,1255.35,-16.854
7.905,0.0029,0.3579,0.0034,1.1204,-74.8599,0.2101,37.8,85900.0,,,,,,,
7.91,,,,,,,,,160.691,-6.418,-0.616,7.626,-0.509,1256.3,-16.854
7.915,-0.042,0.3564,-0.022,0.6303,-74.4398,0.7703,37.8,85880.0,,,,,,,
7.92,,,,,,,,,160.716,-6.369,-0.62,7.667,-0.506,1260.3,-16.825
7.925,-0.0073,0.356,-0.0107,1.3305,-71.3585,0.2101,37.8,85831.0,,,,,,,
7.93,,,,,,,,,160.737,-6.319,-0.623,7.708,-0.504,1261.34,-16.816
7.935,-0.0015,0.3628,0.0,0.7003,-71.4986,0.7003,37.9,85828.0,,,,,,,
7.94,,,,,,,,,160.758,-6.272,-0.626,7.746,-0.501,1262.96,-16.787
7.945,-0.0166,0.3618,-0.019,-0.1401,-71.9188,0.7703,37.8,85816.0,,,,,,,
7.95,,,,,,,,,160.773,-6.224,-0.629,7.785,-0.499,1263.25,-16.787
7.955,-0.0103,0.3579,-0.0225,0.3501,-74.2297,0.3501,37.8,85791.0,,,,,,,
7.96,,,,,,,,,160.784,-6.175,-0.632,7.823,-0.496,1263.91,-16.787
7.965,-0.0117,0.3535,-0.0049,1.1905,-73.8095,0.5602,37.9,85798.0,,,,,,,
7.97,,,,,,,,,160.796,-6.125,-0.635,7.863,-0.493,1265.82,-16.731
7.975,-0.0361,0.3623,-0.0264,0.0,-73.6695,0.4202,37.8,85783.0,,,,,,,
7.98,,,,,,,,,160.814,-6.075,-0.638,7.902,-0.49,1270.48,-16.731
7.985,0.019,0.3574,0.0015,0.7003,-73.8095,0.3501,37.9,85720.0,,,,,,,
7.99,,,,,,,,,160.828,-6.024,-0.641,7.94,-0.487,1270.77,-16.731
7.995,-0.0244,0.3501,-0.02,1.5406,-75.07,0.6303,37.9,85684.0,,,,,,,
8.0,,,,,,,,,160.838,-5.974,-0.644,7.978,-0.484,1271.91,-16.731
8.005,-0.0293,0.3545,-0.0117,0.7703,-75.07,0.4202,37.9,85712.0,,,,,,,
8.01,,,,,,,,,160.848,-5.922,-0.647,8.017,-0.482,1273.62,-16.721
8.015,0.0132,0.3521,-0.0068,0.4902,-73.8796,0.5602,37.9,85693.0,,,,,,,
8.02,,,,,,,,,160.854,-5.87,-0.65,8.055,-0.479,1274.29,-16.721
8.025,-0.0308,0.353,-0.0239,0.2101,-77.6611,0.7003,37.8,85671.0,,,,,,,
8.03,,,,,,,,,160.857,-5.818,-0.653,8.092,-0.476,1275.05,-16.721
8.035,-0.002,0.3433,-0.0024,1.4706,-77.0308,0.2801,37.8,85653.0,,,,,,,
8.04,,,,,,,,,160.87,-5.764,-0.656,8.131,-0.472,1281.05,-16.665
8.045,-0.02,0.3486,-0.0254,0.9104,-77.6611,0.3501,37.8,85642.0,,,,,,,
8.05,,,,,,,,,160.881,-5.709,-0.659,8.169,-0.47,1281.82,-16.646
8.055,-0.0068,0.3604,-0.022,1.0504,-78.2213,0.1401,37.9,85617.0,,,,,,,
8.06,,,,,,,,,160.89,-5.654,-0.662,8.207,-0.466,1283.63,-16.636
8.065,-0.0259,0.3403,0.0039,1.7507,-78.9916,0.0,37.8,85619.0,,,,,,,
8.07,,,,,,,,,160.896,-5.599,-0.666,8.245,-0.463,1284.48,-16.636
8.075,-0.0195,0.3447,-0.0122,0.9804,-77.591,0.3501,37.9,85616.0,,,,,,,
8.08,,,,,,,,,160.901,-5.542,-0.67,8.283,-0.461,1285.72,-16.618
8.085,-0.0312,0.356,-0.0327,1.6106,-75.9804,-0.1401,37.8,85574.0,,,,,,,
8.09,,,,,,,,,160.904,-5.487,-0.673,8.32,-0.457,1287.44,-16.58
8.095,-0.0083,0.3457,0.0039,1.6807,-72.8992,-0.1401,37.8,85582.0,,,,,,,
8.1,,,,,,,,,160.904,-5.432,-0.676,8.356,-0.455,1288.49,-16.618
8.105,-0.0156,0.3428,-0.0083,0.9104,-73.3193,-0.4902,37.8,85518.0,,,,,,,
8.11,,,,,,,,,160.906,-5.379,-0.68,8.389,-0.452,1290.68,-16.551
8.115,0.0107,0.3433,-0.0127,1.6106,-73.1092,-0.4902,37.9,85526.0,,,,,,,
8.12,,,,,,,,,160.902,-5.326,-0.683,8.423,-0.449,1290.88,-16.495
8.125,-0.0366,0.3413,-0.0044,1.2605,-72.619,-0.4202,37.8,85500.0,,,,,,,
8.13,,,,,,,,,160.894,-5.273,-0.687,8.457,-0.446,1290.97,-16.476
8.135,-0.0205,0.3525,-0.0229,0.2101,-70.6583,-0.8403,37.9,85464.0,,,,,,,
8.14,,,,,,,,,160.889,-5.219,-0.691,8.489,-0.443,1294.21,-16.476
8.145,-0.0122,0.3345,-0.0112,1.1905,-69.5378,-0.6303,37.8,85460.0,,,,,,,
8.15,,,,,,,,,160.88,-5.168,-0.694,8.521,-0.439,1294.98,-16.476
8.155,-0.0171,0.3389,-0.0103,1.1905,-70.6583,-0.7003,37.9,85407.0,,,,,,,
8.16,,,,,,,,,160.879,-5.116,-0.697,8.552,-0.436,1299.56,-16.448
8.165,0.0005,0.3389,-0.0166,1.9608,-69.3978,-0.7703,37.8,85412.0,,,,,,,
8.17,,,,,,,,,160.874,-5.064,-0.701,8.583,-0.432,1300.33,-16.448
8.175,-0.0283,0.3452,-0.0127,0.9104,-70.6583,-0.5602,37.9,85396.0,,,,,,,
8.18,,,,,,,,,160.868,-5.013,-0.705,8.613,-0.43,1302.04,-16.438
8.185,-0.0029,0.3452,-0.019,1.3305,-69.888,-0.9804,37.9,85398.0,,,,,,,
8.19,,,,,,,,,160.867,-4.96,-0.708,8.643,-0.426,1305.48,-16.438
8.195,-0.0073,0.3433,0.0059,0.4202,-70.5882,-0.5602,37.9,85360.0,,,,,,,
8.2,,,,,,,,,160.86,-4.908,-0.712,8.673,-0.423,1305.86,-16.438
8.205,-0.0322,0.332,-0.0234,0.4902,-73.3193,-0.5602,37.8,85353.0,,,,,,,
8.21,,,,,,,,,160.861,-4.855,-0.715,8.702,-0.419,1310.45,-16.448
8.215,0.0083,0.3335,-0.0186,1.1204,-71.0084,-0.8403,37.8,85334.0,,,,,,,
8.22,,,,,,,,,160.857,-4.8,-0.718,8.733,-0.415,1310.93,-16.41
8.225,-0.0327,0.3394,0.0,1.7507,-71.1485,-0.3501,37.8,85314.0,,,,,,,
8.23,,,,,,,,,160.851,-4.746,-0.721,8.762,-0.412,1311.79,-16.363
8.235,0.0024,0.3384,-0.0039,0.9104,-71.0084,-0.7703,37.8,85299.0,,,,,,,
8.24,,,,,,,,,160.84,-4.692,-0.724,8.791,-0.409,1311.98,-16.363
8.245,-0.0366,0.3208,-0.0112,0.2801,-72.0588,-0.3501,37.8,85282.0,,,,,,,
8.25,,,,,,,,,160.833,-4.638,-0.728,8.819,-0.406,1315.42,-16.363
8.255,0.0073,0.333,-0.0171,0.0,-71.4286,-0.7703,37.8,85265.0,,,,,,,
8.26,,,,,,,,,160.822,-4.583,-0.73,8.848,-0.402,1316.09,-16.363
8.265,-0.0146,0.3467,-0.0195,0.8403,-71.4286,-0.07,37.8,85261.0,,,,,,,
8.27,,,,,,,,,160.81,-4.529,-0.733,8.876,-0.397,1317.91,-16.353
8.275,-0.0249,0.3252,0.0068,1.9608,-71.9188,-0.2101,37.9,85223.0,,,,,,,
8.28,,,,,,,,,160.798,-4.474,-0.736,8.903,-0.394,1319.82,-16.353
