ts,id,Ax,Ay,Az,Gx,Gy,Gz
-0.755,IMU0,-0.03515625,-0.509765625,0.03564453125,-0.0700280112044818,0.700280112044818,0.0700280112044818
-0.745,IMU0,-0.03515625,-0.5107421875,0.03515625,0.0,0.6302521008403361,0.0700280112044818
-0.735,IMU0,-0.037109375,-0.51025390625,0.03515625,-0.0700280112044818,0.5602240896358543,0.1400560224089636
-0.725,IMU0,-0.0380859375,-0.50927734375,0.03515625,-0.0700280112044818,0.350140056022409,0.0700280112044818
-0.715,IMU0,-0.03564453125,-0.5078125,0.0361328125,-0.0700280112044818,0.350140056022409,0.0700280112044818
-0.705,IMU0,-0.03271484375,-0.50732421875,0.0361328125,-0.1400560224089636,0.350140056022409,0.0700280112044818
-0.695,IMU0,-0.033203125,-0.50830078125,0.03515625,-0.0700280112044818,0.350140056022409,0.1400560224089636
-0.685,IMU0,-0.03466796875,-0.505859375,0.033203125,-0.0700280112044818,0.42016806722689076,0.0700280112044818
-0.675,IMU0,-0.03564453125,-0.505859375,0.0361328125,-0.0700280112044818,0.4901960784313726,0.1400560224089636
-0.665,IMU0,-0.033203125,-0.51123046875,0.03564453125,-0.0700280112044818,0.4901960784313726,0.0700280112044818
-0.655,IMU0,-0.03369140625,-0.51123046875,0.03564453125,-0.1400560224089636,0.42016806722689076,0.0700280112044818
-0.645,IMU0,-0.03271484375,-0.509765625,0.03662109375,-0.0700280112044818,0.42016806722689076,0.0700280112044818
-0.635,IMU0,-0.0361328125,-0.5087890625,0.03564453125,-0.1400560224089636,0.350140056022409,0.0700280112044818
-0.625,IMU0,-0.0341796875,-0.5078125,0.0341796875,-0.0700280112044818,0.2801120448179272,0.0700280112044818
-0.615,IMU0,-0.03369140625,-0.50830078125,0.03515625,0.0700280112044818,0.350140056022409,0.0700280112044818
-0.605,IMU0,-0.03515625,-0.51025390625,0.037109375,-0.0700280112044818,0.5602240896358543,0.0700280112044818
-0.595,IMU0,-0.037109375,-0.5107421875,0.0361328125,-0.0700280112044818,0.5602240896358543,0.0700280112044818
-0.585,IMU0,-0.03515625,-0.51123046875,0.03466796875,-0.0700280112044818,0.5602240896358543,0.0700280112044818
-0.575,IMU0,-0.03369140625,-0.5087890625,0.03662109375,-0.0700280112044818,0.42016806722689076,0.1400560224089636
-0.565,IMU0,-0.03515625,-0.5087890625,0.0361328125,-0.0700280112044818,0.2801120448179272,0.1400560224089636
-0.555,IMU0,-0.03564453125,-0.5078125,0.03662109375,-0.0700280112044818,0.2801120448179272,0.1400560224089636
-0.545,IMU0,-0.03466796875,-0.50830078125,0.0341796875,-0.0700280112044818,0.2801120448179272,0.0700280112044818
-0.535,IMU0,-0.033203125,-0.509765625,0.03564453125,-0.0700280112044818,0.350140056022409,0.0700280112044818
-0.525,IMU0,-0.03466796875,-0.5107421875,0.03466796875,0.0,0.2801120448179272,0.0700280112044818
-0.515,IMU0,-0.033203125,-0.509765625,0.03564453125,-0.0700280112044818,0.4901960784313726,0.0700280112044818
-0.505,IMU0,-0.03466796875,-0.5087890625,0.03564453125,-0.0700280112044818,0.42016806722689076,0.0700280112044818
-0.495,IMU0,-0.0341796875,-0.5087890625,0.03466796875,-0.0700280112044818,0.4901960784313726,0.0700280112044818
-0.485,IMU0,-0.03564453125,-0.50927734375,0.03515625,-0.0700280112044818,0.42016806722689076,0.0700280112044818
-0.475,IMU0,-0.03466796875,-0.50537109375,0.03564453125,-0.0700280112044818,0.42016806722689076,0.1400560224089636
-0.465,IMU0,-0.03466796875,-0.50830078125,0.03466796875,-0.0700280112044818,0.4901960784313726,0.0700280112044818
-0.455,IMU0,-0.0341796875,-0.5078125,0.037109375,0.0,0.350140056022409,0.0700280112044818
-0.445,IMU0,-0.03564453125,-0.50830078125,0.03466796875,-0.0700280112044818,0.42016806722689076,0.1400560224089636
-0.435,IMU0,-0.03369140625,-0.51025390625,0.037109375,-0.0700280112044818,0.350140056022409,0.1400560224089636
-0.425,IMU0,-0.03515625,-0.50732421875,0.03564453125,-0.1400560224089636,0.21008403361344538,0.0700280112044818
-0.415,IMU0,-0.03466796875,-0.50927734375,0.03564453125,-0.0700280112044818,0.2801120448179272,0.0700280112044818
-0.405,IMU0,-0.03369140625,-0.5087890625,0.03515625,-0.0700280112044818,0.42016806722689076,0.0700280112044818
-0.395,IMU0,-0.03564453125,-0.5068359375,0.03466796875,-0.0700280112044818,0.350140056022409,0.1400560224089636
-0.385,IMU0,-0.037109375,-0.51025390625,0.0361328125,-0.0700280112044818,0.21008403361344538,0.1400560224089636
-0.375,IMU0,-0.03466796875,-0.50927734375,0.0361328125,0.0,0.21008403361344538,0.0700280112044818
-0.365,IMU0,-0.03662109375,-0.51025390625,0.03369140625,-0.1400560224089636,0.0700280112044818,0.0700280112044818
-0.355,IMU0,-0.033203125,-0.52197265625,0.02978515625,-0.1400560224089636,0.0,0.21008403361344538
-0.345,IMU0,-0.03564453125,-0.49951171875,0.01318359375,0.1400560224089636,0.9103641456582633,-0.0700280112044818
-0.335,IMU0,-0.02880859375,-0.498046875,0.08154296875,0.5602240896358543,0.8403361344537815,-0.1400560224089636
-0.325,IMU0,-0.03466796875,-0.49755859375,0.04248046875,-0.8403361344537815,0.21008403361344538,0.0700280112044818
-0.315,IMU0,-0.033203125,-0.51123046875,-0.0126953125,-0.7703081232492998,0.9803921568627452,0.0
-0.305,IMU0,-0.029296875,-0.509765625,0.033203125,0.5602240896358543,0.5602240896358543,0.0700280112044818
-0.295,IMU0,-0.0390625,-0.51708984375,0.0712890625,0.350140056022409,-0.1400560224089636,0.2801120448179272
-0.285,IMU0,-0.046875,-0.52001953125,0.03515625,-0.5602240896358543,-0.350140056022409,0.2801120448179272
-0.275,IMU0,-0.0361328125,-0.5166015625,0.0078125,-0.21008403361344538,-0.350140056022409,-0.0700280112044818
-0.265,IMU0,-0.0126953125,-0.50244140625,0.0458984375,0.42016806722689076,0.350140056022409,-0.1400560224089636
-0.255,IMU0,-0.02783203125,-0.5,0.04248046875,-0.0700280112044818,0.42016806722689076,0.2801120448179272
-0.245,IMU0,-0.05078125,-0.5048828125,0.02490234375,-0.2801120448179272,0.1400560224089636,0.2801120448179272
-0.235,IMU0,-0.01611328125,-0.51025390625,0.05126953125,0.0700280112044818,1.1204481792717087,-0.21008403361344538
-0.225,IMU0,-0.037109375,-0.517578125,0.02734375,-0.350140056022409,0.9103641456582633,0.2801120448179272
-0.215,IMU0,-0.0595703125,-0.521484375,0.0322265625,-0.0700280112044818,0.2801120448179272,0.2801120448179272
-0.205,IMU0,-0.0380859375,-0.51416015625,0.0390625,0.0700280112044818,-0.42016806722689076,-0.1400560224089636
-0.195,IMU0,-0.01513671875,-0.5068359375,0.0380859375,-0.1400560224089636,-0.6302521008403361,-0.0700280112044818
-0.185,IMU0,-0.0224609375,-0.5009765625,0.025390625,-0.1400560224089636,0.0700280112044818,0.2801120448179272
-0.175,IMU0,-0.0380859375,-0.52001953125,0.03515625,0.1400560224089636,-0.0700280112044818,0.2801120448179272
-0.165,IMU0,-0.04638671875,-0.81640625,0.0263671875,-0.0700280112044818,0.8403361344537815,0.0
-0.155,IMU0,-0.03369140625,-0.3134765625,0.0400390625,1.3305322128851542,-3.2212885154061626,0.5602240896358543
-0.145,IMU0,-0.02734375,-0.57275390625,0.09521484375,-0.0700280112044818,-5.2521008403361344,0.6302521008403361
-0.135,IMU0,-0.06689453125,-1.0859375,0.05810546875,-1.3305322128851542,-4.621848739495799,1.4705882352941178
-0.125,IMU0,-0.07373046875,-1.52197265625,0.11376953125,-0.7703081232492998,-9.663865546218489,1.3305322128851542
-0.115,IMU0,-0.05078125,-1.79345703125,0.13134765625,-2.030812324929972,-10.854341736694678,2.030812324929972
-0.105,IMU0,-0.04931640625,-2.158203125,0.16650390625,-4.551820728291316,-13.865546218487395,7.42296918767507
-0.095,IMU0,-0.14453125,-2.337890625,0.14990234375,1.400560224089636,-23.31932773109244,4.621848739495799
-0.085,IMU0,-0.0703125,-2.7294921875,0.32080078125,-2.73109243697479,-26.12044817927171,4.201680672268908
-0.075,IMU0,-0.115234375,-3.1201171875,0.2529296875,-6.792717086834735,-37.324929971988794,7.42296918767507
-0.065,IMU0,-0.19189453125,-3.53662109375,0.228515625,-12.955182072829132,-37.39495798319328,16.456582633053223
-0.055,IMU0,-0.22412109375,-4.482421875,0.302734375,-12.46498599439776,-24.859943977591037,8.823529411764707
-0.045,IMU0,-0.21728515625,-5.287109375,0.42236328125,-10.224089635854343,-22.338935574229694,6.932773109243698
-0.035,IMU0,-0.322265625,-6.14404296875,0.5009765625,-19.95798319327731,-23.10924369747899,11.344537815126051
-0.025,IMU0,-0.35546875,-6.51708984375,0.54736328125,-21.708683473389357,-8.893557422969188,14.495798319327731
-0.015,IMU0,-0.3662109375,-6.24853515625,0.43359375,-12.394957983193278,2.5910364145658265,7.072829131652662
-0.005,IMU0,-0.2802734375,-5.08935546875,0.3203125,0.21008403361344538,1.7507002801120448,0.9103641456582633
0.005,IMU0,-0.30859375,-4.79296875,0.33203125,0.7703081232492998,-5.042016806722689,-0.2801120448179272
0.015,IMU0,-0.21484375,-4.6806640625,0.35888671875,0.5602240896358543,-6.23249299719888,0.700280112044818
0.025,IMU0,-0.2236328125,-4.6435546875,0.33251953125,0.0700280112044818,-5.042016806722689,0.5602240896358543
0.035,IMU0,-0.23486328125,-4.67626953125,0.2958984375,-0.4901960784313726,-0.350140056022409,0.8403361344537815
0.045,IMU0,-0.27197265625,-4.7451171875,0.23828125,0.7703081232492998,-1.4705882352941178,1.3305322128851542
0.055,IMU0,-0.23095703125,-4.8056640625,0.3623046875,1.9607843137254903,-1.8907563025210086,-0.6302521008403361
0.065,IMU0,-0.30419921875,-4.8447265625,0.0771484375,0.0700280112044818,2.8711484593837535,0.42016806722689076
0.075,IMU0,-0.17919921875,-4.81591796875,0.05615234375,-2.450980392156863,-3.2913165266106446,0.8403361344537815
0.085,IMU0,-0.134765625,-4.8271484375,0.30078125,8.403361344537815,-10.714285714285715,0.0700280112044818
0.095,IMU0,-0.2509765625,-4.76123046875,0.33056640625,5.882352941176471,-10.504201680672269,3.2913165266106446
0.105,IMU0,-0.2080078125,-4.751953125,0.36767578125,3.9215686274509807,-2.6610644257703084,2.2408963585434174
0.115,IMU0,-0.2841796875,-4.7451171875,0.2626953125,4.411764705882353,3.361344537815126,2.450980392156863
0.125,IMU0,-0.18212890625,-4.763671875,0.40234375,4.621848739495799,3.8515406162464987,1.3305322128851542
0.135,IMU0,-0.0966796875,-4.76513671875,0.873046875,7.843137254901961,14.495798319327731,-1.1904761904761905
0.145,IMU0,-0.32421875,-4.82861328125,0.25146484375,-3.8515406162464987,22.058823529411764,2.170868347338936
0.155,IMU0,-0.24267578125,-4.82470703125,0.3564453125,-1.6106442577030813,10.504201680672269,0.8403361344537815
0.165,IMU0,-0.41357421875,-4.81005859375,0.2060546875,-1.8907563025210086,13.865546218487395,0.0700280112044818
0.175,IMU0,-0.22314453125,-4.81591796875,0.43603515625,1.3305322128851542,1.5406162464985995,-3.2913165266106446
0.185,IMU0,-0.19384765625,-4.77978515625,0.2001953125,-1.6106442577030813,20.798319327731093,-4.761904761904762
0.195,IMU0,-0.322265625,-4.779296875,0.3779296875,0.21008403361344538,25.70028011204482,0.4901960784313726
0.205,IMU0,-0.0595703125,-4.68212890625,0.37451171875,0.21008403361344538,31.58263305322129,-2.8711484593837535
0.215,IMU0,-0.46923828125,-4.82275390625,-0.166015625,-4.411764705882353,-3.5714285714285716,5.042016806722689
0.225,IMU0,-0.0126953125,-4.74755859375,0.20361328125,5.322128851540617,-22.198879551820728,-1.3305322128851542
0.235,IMU0,-0.21630859375,-4.79150390625,0.25927734375,6.23249299719888,-14.355742296918768,2.9411764705882355
0.245,IMU0,-0.185546875,-4.81201171875,0.33154296875,5.2521008403361344,-3.081232492997199,5.8123249299719895
0.255,IMU0,-0.3154296875,-4.7607421875,0.13330078125,5.602240896358544,-9.173669467787116,3.361344537815126
0.265,IMU0,-0.48291015625,-4.751953125,0.61962890625,11.554621848739496,-24.439775910364148,4.201680672268908
0.275,IMU0,-0.35791015625,-4.7275390625,0.71923828125,-1.5406162464985995,-9.033613445378151,0.0
0.285,IMU0,-0.27197265625,-4.74609375,0.3134765625,-4.761904761904762,13.725490196078432,-4.831932773109244
0.295,IMU0,-0.39013671875,-4.73095703125,0.11865234375,-3.431372549019608,8.893557422969188,-2.2408963585434174
0.305,IMU0,-0.2998046875,-4.703125,0.50830078125,3.5714285714285716,40.75630252100841,-9.593837535014005
0.315,IMU0,-0.345703125,-4.7705078125,0.197265625,0.350140056022409,77.73109243697479,-7.002801120448179
0.325,IMU0,-0.427734375,-4.62548828125,0.443359375,0.1400560224089636,64.56582633053222,-8.61344537815126
0.335,IMU0,-0.61572265625,-4.63671875,0.2119140625,-2.030812324929972,39.77591036414566,-7.703081232492997
0.345,IMU0,-0.2490234375,-4.65185546875,-0.0166015625,-4.061624649859944,20.938375350140056,-11.834733893557424
0.355,IMU0,-0.20947265625,-4.61865234375,0.1064453125,4.901960784313726,9.873949579831933,-8.123249299719888
0.365,IMU0,-0.13720703125,-4.59912109375,0.5361328125,9.73389355742297,-24.439775910364148,-1.050420168067227
0.375,IMU0,-0.41162109375,-4.60595703125,0.33935546875,0.0700280112044818,-48.94957983193277,5.2521008403361344
0.385,IMU0,-0.49560546875,-4.69580078125,0.0966796875,-3.431372549019608,-42.15686274509804,5.182072829131653
0.395,IMU0,-0.306640625,-4.74072265625,0.27734375,2.2408963585434174,-38.30532212885154,-0.0700280112044818
0.405,IMU0,-0.1064453125,-4.7109375,0.51953125,6.23249299719888,-38.30532212885154,-2.8711484593837535
0.415,IMU0,-0.1650390625,-4.73388671875,0.4794921875,-1.3305322128851542,-0.350140056022409,0.4901960784313726
0.425,IMU0,-0.24755859375,-4.77783203125,0.2607421875,-7.492997198879552,27.3109243697479,4.061624649859944
0.435,IMU0,-0.20361328125,-4.791015625,0.36474609375,-1.1204481792717087,28.0812324929972,0.5602240896358543
0.445,IMU0,-0.18408203125,-4.7802734375,0.4150390625,-1.5406162464985995,26.330532212885156,-0.8403361344537815
0.455,IMU0,-0.2421875,-4.78173828125,0.30224609375,-5.112044817927171,25.420168067226893,2.6610644257703084
0.465,IMU0,-0.21728515625,-4.78515625,0.37109375,-0.9803921568627452,23.949579831932773,0.2801120448179272
0.475,IMU0,-0.193359375,-4.7744140625,0.37353515625,-2.8711484593837535,22.408963585434176,0.21008403361344538
0.485,IMU0,-0.2431640625,-4.76025390625,0.31591796875,-3.781512605042017,21.42857142857143,2.100840336134454
0.495,IMU0,-0.2060546875,-4.75830078125,0.35888671875,-4.061624649859944,18.207282913165265,0.8403361344537815
0.505,IMU0,-0.2373046875,-4.75439453125,0.34326171875,-3.2212885154061626,16.80672268907563,1.400560224089636
0.515,IMU0,-0.203125,-4.755859375,0.39404296875,-2.2408963585434174,14.84593837535014,-0.2801120448179272
0.525,IMU0,-0.21875,-4.76513671875,0.3369140625,-4.621848739495799,13.165266106442578,1.050420168067227
0.535,IMU0,-0.2353515625,-4.76513671875,0.3662109375,-2.73109243697479,11.414565826330533,0.6302521008403361
0.545,IMU0,-0.2119140625,-4.77001953125,0.3837890625,-3.5714285714285716,9.38375350140056,-0.5602240896358543
0.555,IMU0,-0.232421875,-4.76611328125,0.34228515625,-4.551820728291316,7.843137254901961,0.21008403361344538
0.565,IMU0,-0.22216796875,-4.7685546875,0.384765625,-2.9411764705882355,5.9523809523809526,-0.7703081232492998
0.575,IMU0,-0.21826171875,-4.76806640625,0.3603515625,-4.621848739495799,3.991596638655462,-1.050420168067227
0.585,IMU0,-0.23681640625,-4.77734375,0.349609375,-4.131652661064426,2.380952380952381,-0.700280112044818
0.595,IMU0,-0.2236328125,-4.7958984375,0.38427734375,-3.5714285714285716,0.1400560224089636,-1.8907563025210086
0.605,IMU0,-0.22705078125,-4.7802734375,0.3486328125,-4.971988795518207,-1.8907563025210086,-1.680672268907563
0.615,IMU0,-0.2333984375,-4.77978515625,0.3671875,-3.8515406162464987,-3.781512605042017,-1.8907563025210086
0.625,IMU0,-0.220703125,-4.7724609375,0.37158203125,-4.411764705882353,-6.0924369747899165,-2.5210084033613445
0.635,IMU0,-0.2275390625,-4.7734375,0.3486328125,-4.901960784313726,-8.123249299719888,-2.170868347338936
0.645,IMU0,-0.2265625,-4.7763671875,0.376953125,-3.9215686274509807,-10.364145658263306,-2.73109243697479
0.655,IMU0,-0.224609375,-4.77685546875,0.35986328125,-5.112044817927171,-12.815126050420169,-2.9411764705882355
0.665,IMU0,-0.2314453125,-4.7880859375,0.3583984375,-4.901960784313726,-14.84593837535014,-2.73109243697479
0.675,IMU0,-0.2197265625,-4.79150390625,0.37890625,-4.621848739495799,-17.086834733893557,-3.431372549019608
0.685,IMU0,-0.21875,-4.78662109375,0.3564453125,-5.5322128851540615,-19.39775910364146,-3.2913165266106446
0.695,IMU0,-0.22314453125,-4.7900390625,0.36962890625,-4.831932773109244,-21.708683473389357,-3.361344537815126
0.705,IMU0,-0.22412109375,-4.79345703125,0.36669921875,-5.392156862745098,-24.229691876750703,-3.5714285714285716
0.715,IMU0,-0.22998046875,-4.79638671875,0.35888671875,-5.46218487394958,-26.400560224089638,-3.641456582633053
0.725,IMU0,-0.236328125,-4.7900390625,0.37451171875,-5.042016806722689,-28.641456582633054,-3.991596638655462
0.735,IMU0,-0.23388671875,-4.779296875,0.36181640625,-5.602240896358544,-31.022408963585434,-4.271708683473389
0.745,IMU0,-0.23046875,-4.779296875,0.3642578125,-5.322128851540617,-33.12324929971989,-4.341736694677872
0.755,IMU0,-0.22705078125,-4.78759765625,0.37353515625,-5.392156862745098,-35.57422969187675,-4.341736694677872
0.765,IMU0,-0.23046875,-4.79150390625,0.35791015625,-5.602240896358544,-38.095238095238095,-4.061624649859944
0.775,IMU0,-0.22998046875,-4.806640625,0.365234375,-5.042016806722689,-40.75630252100841,-4.201680672268908
0.785,IMU0,-0.2314453125,-4.81298828125,0.361328125,-5.182072829131653,-43.34733893557423,-3.991596638655462
0.795,IMU0,-0.234375,-4.82080078125,0.36181640625,-4.901960784313726,-45.728291316526615,-3.781512605042017
0.805,IMU0,-0.23193359375,-4.8154296875,0.36181640625,-4.69187675070028,-48.38935574229692,-3.781512605042017
0.815,IMU0,-0.234375,-4.81591796875,0.35693359375,-4.761904761904762,-51.05042016806723,-3.361344537815126
0.825,IMU0,-0.2353515625,-4.81640625,0.3623046875,-4.201680672268908,-53.57142857142858,-3.2913165266106446
0.835,IMU0,-0.232421875,-4.81689453125,0.3583984375,-4.341736694677872,-56.44257703081233,-3.2913165266106446
0.845,IMU0,-0.24072265625,-4.81787109375,0.35498046875,-4.131652661064426,-59.103641456582636,-3.011204481792717
0.855,IMU0,-0.244140625,-4.814453125,0.3544921875,-3.8515406162464987,-64.77591036414566,-2.801120448179272
0.865,IMU0,-0.24169921875,-4.82177734375,0.35888671875,-3.2913165266106446,-67.22689075630252,-2.801120448179272
0.875,IMU0,-0.2421875,-4.83642578125,0.36279296875,-3.151260504201681,-69.53781512605042,-2.5910364145658265
0.885,IMU0,-0.23974609375,-4.8330078125,0.3564453125,-3.151260504201681,-72.26890756302521,-2.380952380952381
0.895,IMU0,-0.2392578125,-4.85009765625,0.3603515625,-2.801120448179272,-75.0,-2.170868347338936
0.905,IMU0,-0.24951171875,-4.85888671875,0.36083984375,-2.6610644257703084,-77.6610644257703,-1.8907563025210086
0.915,IMU0,-0.2490234375,-4.85302734375,0.36572265625,-2.3109243697478994,-80.60224089635855,-1.9607843137254903
0.925,IMU0,-0.25,-4.8544921875,0.3701171875,-2.2408963585434174,-83.33333333333334,-1.680672268907563
0.935,IMU0,-0.25,-4.853515625,0.3662109375,-2.380952380952381,-86.06442577030813,-1.5406162464985995
0.945,IMU0,-0.25146484375,-4.85400390625,0.37255859375,-2.100840336134454,-88.79551820728291,-1.400560224089636
0.955,IMU0,-0.25537109375,-4.84814453125,0.37451171875,-1.9607843137254903,-91.59663865546219,-1.1904761904761905
0.965,IMU0,-0.25146484375,-4.8544921875,0.3740234375,-2.100840336134454,-94.39775910364146,-0.9803921568627452
0.975,IMU0,-0.24853515625,-4.84716796875,0.3720703125,-2.030812324929972,-97.05882352941177,-0.6302521008403361
0.985,IMU0,-0.25244140625,-4.84423828125,0.37158203125,-1.9607843137254903,-99.85994397759104,-0.350140056022409
0.995,IMU0,-0.2529296875,-4.84130859375,0.37255859375,-1.9607843137254903,-102.73109243697479,0.0
1.005,IMU0,-0.259765625,-4.8603515625,0.3818359375,-1.9607843137254903,-105.74229691876751,0.4901960784313726
1.015,IMU0,-0.26318359375,-4.8759765625,0.3828125,-1.9607843137254903,-108.75350140056022,0.5602240896358543
1.025,IMU0,-0.26220703125,-4.875,0.38671875,-1.8907563025210086,-111.62464985994399,0.8403361344537815
1.035,IMU0,-0.26611328125,-4.87548828125,0.3828125,-2.170868347338936,-114.42577030812325,1.1904761904761905
1.045,IMU0,-0.265625,-4.89697265625,0.384765625,-2.100840336134454,-117.3669467787115,1.3305322128851542
1.055,IMU0,-0.27001953125,-4.89208984375,0.38720703125,-2.170868347338936,-120.44817927170868,1.8907563025210086
1.065,IMU0,-0.2734375,-4.896484375,0.38232421875,-2.3109243697478994,-123.38935574229693,2.030812324929972
1.075,IMU0,-0.27294921875,-4.8994140625,0.38427734375,-2.3109243697478994,-126.40056022408965,2.2408963585434174
1.085,IMU0,-0.27783203125,-4.89453125,0.38671875,-2.3109243697478994,-129.13165266106444,2.5910364145658265
1.095,IMU0,-0.2841796875,-4.9033203125,0.38525390625,-2.450980392156863,-132.0028011204482,2.5910364145658265
1.105,IMU0,-0.28662109375,-4.923828125,0.3916015625,-2.5210084033613445,-134.59383753501402,2.8711484593837535
1.115,IMU0,-0.29248046875,-4.92041015625,0.39990234375,-2.5910364145658265,-137.04481792717087,2.9411764705882355
1.125,IMU0,-0.29248046875,-4.91748046875,0.39599609375,-2.9411764705882355,-139.6358543417367,2.801120448179272
1.135,IMU0,-0.2890625,-4.919921875,0.39892578125,-3.2212885154061626,-142.296918767507,3.081232492997199
1.145,IMU0,-0.30419921875,-4.95361328125,0.43310546875,-3.081232492997199,-144.81792717086836,3.2212885154061626
1.155,IMU0,-0.30810546875,-4.9404296875,0.44091796875,-4.341736694677872,-147.47899159663865,3.011204481792717
1.165,IMU0,-0.3076171875,-4.92626953125,0.42236328125,-5.9523809523809526,-150.21008403361344,2.6610644257703084
1.175,IMU0,-0.3125,-4.9228515625,0.44189453125,-5.9523809523809526,-152.94117647058823,2.5210084033613445
1.185,IMU0,-0.3154296875,-4.931640625,0.43603515625,-7.633053221288516,-155.60224089635855,2.2408963585434174
1.195,IMU0,-0.31201171875,-4.9296875,0.4326171875,-8.473389355742297,-158.54341736694678,2.100840336134454
1.205,IMU0,-0.31201171875,-4.93994140625,0.45263671875,-8.96358543417367,-161.55462184873952,2.030812324929972
1.215,IMU0,-0.31884765625,-4.93359375,0.44091796875,-10.854341736694678,-164.49579831932775,2.170868347338936
1.225,IMU0,-0.3291015625,-4.94091796875,0.45263671875,-11.764705882352942,-169.95798319327733,2.100840336134454
1.235,IMU0,-0.333984375,-4.9501953125,0.44189453125,-12.745098039215687,-172.61904761904762,2.100840336134454
1.245,IMU0,-0.328125,-4.96337890625,0.4775390625,-12.675070028011206,-175.70028011204482,1.9607843137254903
1.255,IMU0,-0.34423828125,-4.96533203125,0.4560546875,-14.42577030812325,-178.71148459383755,2.170868347338936
1.265,IMU0,-0.3388671875,-4.974609375,0.470703125,-14.075630252100842,-181.37254901960785,2.170868347338936
1.275,IMU0,-0.33984375,-4.97216796875,0.46044921875,-14.635854341736696,-184.03361344537817,2.2408963585434174
1.285,IMU0,-0.3515625,-4.97265625,0.4599609375,-14.915966386554622,-186.69467787114846,2.450980392156863
1.295,IMU0,-0.34423828125,-4.97998046875,0.478515625,-14.285714285714286,-188.79551820728292,2.3109243697478994
1.305,IMU0,-0.3486328125,-4.99462890625,0.46435546875,-14.915966386554622,-191.1764705882353,2.5910364145658265
1.315,IMU0,-0.35107421875,-5.01123046875,0.466796875,-14.495798319327731,-192.99719887955183,2.8711484593837535
1.325,IMU0,-0.353515625,-5.013671875,0.4833984375,-14.075630252100842,-195.0280112044818,2.8711484593837535
1.335,IMU0,-0.35693359375,-5.01611328125,0.474609375,-14.565826330532213,-196.84873949579833,3.2913165266106446
1.345,IMU0,-0.35302734375,-5.0234375,0.47802734375,-13.58543417366947,-198.109243697479,3.151260504201681
1.355,IMU0,-0.3603515625,-5.02392578125,0.4853515625,-13.445378151260504,-199.29971988795518,3.5714285714285716
1.365,IMU0,-0.35693359375,-5.0234375,0.48974609375,-13.095238095238097,-200.77030812324932,3.781512605042017
1.375,IMU0,-0.34765625,-5.0126953125,0.50341796875,-12.254901960784315,-202.3109243697479,3.9215686274509807
1.385,IMU0,-0.35009765625,-5.013671875,0.494140625,-12.324929971988796,-204.13165266106444,4.621848739495799
1.395,IMU0,-0.34423828125,-5.025390625,0.51123046875,-11.27450980392157,-206.02240896358543,4.901960784313726
1.405,IMU0,-0.33349609375,-5.03466796875,0.51220703125,-10.994397759103641,-207.56302521008405,5.322128851540617
1.415,IMU0,-0.32958984375,-5.05224609375,0.50439453125,-10.294117647058824,-209.17366946778714,6.0924369747899165
1.425,IMU0,-0.32177734375,-5.052734375,0.52197265625,-9.103641456582633,-211.2044817927171,6.442577030812325
1.435,IMU0,-0.3271484375,-5.06005859375,0.52880859375,-8.96358543417367,-213.79551820728292,7.142857142857143
1.445,IMU0,-0.33642578125,-5.06396484375,0.53857421875,-8.053221288515406,-215.8263305322129,7.212885154061625
1.455,IMU0,-0.32470703125,-5.06787109375,0.537109375,-7.282913165266106,-217.15686274509804,7.563025210084034
1.465,IMU0,-0.32080078125,-5.0556640625,0.55517578125,-6.722689075630252,-217.99719887955183,7.843137254901961
1.475,IMU0,-0.3251953125,-5.05322265625,0.55859375,-5.46218487394958,-219.39775910364148,7.983193277310924
1.485,IMU0,-0.3330078125,-5.05712890625,0.55029296875,-4.761904761904762,-220.3781512605042,8.19327731092437
1.495,IMU0,-0.3154296875,-5.06689453125,0.54736328125,-3.431372549019608,-220.72829131652662,7.913165266106443
1.505,IMU0,-0.33056640625,-5.08349609375,0.556640625,-1.8207282913165266,-220.93837535014006,8.123249299719888
1.515,IMU0,-0.32861328125,-5.09423828125,0.54248046875,-1.1904761904761905,-221.218487394958,7.492997198879552
1.525,IMU0,-0.314453125,-5.1005859375,0.55224609375,0.5602240896358543,-221.77871148459386,6.932773109243698
1.535,IMU0,-0.330078125,-5.1083984375,0.56103515625,1.4705882352941178,-223.03921568627453,6.932773109243698
1.545,IMU0,-0.32763671875,-5.10400390625,0.54541015625,2.100840336134454,-224.6498599439776,5.882352941176471
1.555,IMU0,-0.31787109375,-5.107421875,0.55810546875,3.2913165266106446,-226.1904761904762,4.971988795518207
1.565,IMU0,-0.33056640625,-5.10791015625,0.5537109375,3.711484593837535,-227.94117647058823,4.551820728291316
1.575,IMU0,-0.318359375,-5.1083984375,0.546875,4.341736694677872,-229.90196078431373,3.361344537815126
1.585,IMU0,-0.33203125,-5.1220703125,0.53369140625,5.182072829131653,-234.45378151260505,1.9607843137254903
1.595,IMU0,-0.32275390625,-5.1298828125,0.537109375,5.9523809523809526,-237.25490196078434,0.8403361344537815
1.605,IMU0,-0.3310546875,-5.1357421875,0.525390625,5.9523809523809526,-240.75630252100842,0.4901960784313726
1.615,IMU0,-0.32666015625,-5.14453125,0.51904296875,6.372549019607844,-244.60784313725492,-0.4901960784313726
1.625,IMU0,-0.33837890625,-5.15234375,0.51806640625,6.862745098039216,-248.52941176470588,-1.1204481792717087
1.635,IMU0,-0.326171875,-5.150390625,0.5126953125,6.652661064425771,-252.59103641456585,-1.7507002801120448
1.645,IMU0,-0.328125,-5.169921875,0.50244140625,6.512605042016807,-257.56302521008405,-2.380952380952381
1.655,IMU0,-0.35400390625,-5.1865234375,0.52587890625,6.442577030812325,-262.95518207282913,-2.6610644257703084
1.665,IMU0,-0.36474609375,-5.17138671875,0.4931640625,5.5322128851540615,-269.6778711484594,-3.361344537815126
1.675,IMU0,-0.3740234375,-5.201171875,0.51611328125,5.8123249299719895,-276.05042016806726,-4.131652661064426
1.685,IMU0,-0.3916015625,-5.23828125,0.5087890625,4.831932773109244,-280.88235294117646,-4.481792717086835
1.695,IMU0,-0.3818359375,-5.20263671875,0.48828125,4.551820728291316,-285.29411764705884,-4.831932773109244
1.705,IMU0,-0.39208984375,-5.1787109375,0.498046875,4.761904761904762,-290.1260504201681,-5.392156862745098
1.715,IMU0,-0.396484375,-5.16845703125,0.48193359375,3.5714285714285716,-294.18767507002804,-5.182072829131653
1.725,IMU0,-0.41015625,-5.16064453125,0.470703125,3.431372549019608,-297.7591036414566,-5.6722689075630255
1.735,IMU0,-0.40185546875,-5.16015625,0.4794921875,3.011204481792717,-301.05042016806726,-6.162464985994398
1.745,IMU0,-0.42431640625,-5.15283203125,0.47265625,2.030812324929972,-303.64145658263305,-6.0924369747899165
1.755,IMU0,-0.44384765625,-5.15380859375,0.515625,1.400560224089636,-306.0924369747899,-6.932773109243698
1.765,IMU0,-0.47265625,-5.1552734375,0.51953125,0.0,-307.2829131652661,-7.142857142857143
1.775,IMU0,-0.47314453125,-5.16845703125,0.48486328125,-0.350140056022409,-307.91316526610643,-7.42296918767507
1.785,IMU0,-0.494140625,-5.1962890625,0.513671875,0.350140056022409,-307.56302521008405,-7.633053221288516
1.795,IMU0,-0.5234375,-5.1953125,0.51318359375,-0.1400560224089636,-305.812324929972,-7.42296918767507
1.805,IMU0,-0.529296875,-5.17724609375,0.5341796875,0.0700280112044818,-303.64145658263305,-7.843137254901961
1.815,IMU0,-0.55029296875,-5.1796875,0.53955078125,0.21008403361344538,-300.91036414565826,-8.19327731092437
1.825,IMU0,-0.55712890625,-5.1708984375,0.51025390625,0.350140056022409,-297.12885154061627,-8.19327731092437
1.835,IMU0,-0.56689453125,-5.1669921875,0.5185546875,1.8907563025210086,-291.9467787114846,-8.333333333333334
1.845,IMU0,-0.5859375,-5.1962890625,0.525390625,2.801120448179272,-286.7647058823529,-8.19327731092437
1.855,IMU0,-0.58984375,-5.23046875,0.5263671875,3.711484593837535,-281.6526610644258,-8.333333333333334
1.865,IMU0,-0.59375,-5.2099609375,0.5478515625,4.831932773109244,-276.05042016806726,-8.403361344537815
1.875,IMU0,-0.6005859375,-5.1650390625,0.5595703125,5.882352941176471,-270.86834733893556,-8.403361344537815
1.885,IMU0,-0.61767578125,-5.18115234375,0.5224609375,7.563025210084034,-266.38655462184875,-8.683473389355743
1.895,IMU0,-0.6474609375,-5.17041015625,0.51708984375,9.663865546218489,-260.4341736694678,-8.753501400560225
1.905,IMU0,-0.64697265625,-5.1630859375,0.53759765625,11.904761904761905,-253.57142857142858,-9.38375350140056
1.915,IMU0,-0.65380859375,-5.150390625,0.5341796875,12.955182072829132,-246.77871148459386,-9.243697478991598
1.925,IMU0,-0.671875,-5.1474609375,0.5380859375,14.775910364145659,-239.56582633053222,-9.453781512605042
1.935,IMU0,-0.666015625,-5.15087890625,0.54296875,16.38655462184874,-231.65266106442579,-9.873949579831933
1.945,IMU0,-0.6865234375,-5.15771484375,0.5302734375,20.378151260504204,-216.73669467787116,-9.873949579831933
1.955,IMU0,-0.6806640625,-5.1826171875,0.537109375,22.338935574229694,-209.52380952380955,-9.943977591036415
1.965,IMU0,-0.71044921875,-5.19921875,0.56640625,24.159663865546218,-202.66106442577032,-9.523809523809524
1.975,IMU0,-0.72021484375,-5.20556640625,0.53662109375,25.35014005602241,-196.56862745098042,-9.943977591036415
1.985,IMU0,-0.73828125,-5.18408203125,0.52587890625,27.17086834733894,-189.63585434173672,-10.014005602240896
1.995,IMU0,-0.74462890625,-5.1318359375,0.52490234375,28.92156862745098,-181.51260504201682,-10.084033613445378
2.005,IMU0,-0.76513671875,-5.1240234375,0.49365234375,29.831932773109244,-172.7591036414566,-10.364145658263306
2.015,IMU0,-0.77685546875,-5.123046875,0.4755859375,31.65266106442577,-163.72549019607843,-9.943977591036415
2.025,IMU0,-0.775390625,-5.10888671875,0.45654296875,32.49299719887955,-153.0812324929972,-10.014005602240896
2.035,IMU0,-0.77880859375,-5.10498046875,0.43896484375,33.753501400560225,-141.9467787114846,-9.38375350140056
2.045,IMU0,-0.7958984375,-5.10400390625,0.42626953125,34.45378151260504,-131.09243697478993,-8.473389355742297
2.055,IMU0,-0.80419921875,-5.10107421875,0.39453125,34.733893557422974,-121.42857142857143,-7.703081232492997
2.065,IMU0,-0.8095703125,-5.12744140625,0.40185546875,35.22408963585434,-111.27450980392157,-6.302521008403362
2.075,IMU0,-0.82080078125,-5.1240234375,0.36962890625,34.80392156862745,-102.24089635854342,-4.831932773109244
2.085,IMU0,-0.81201171875,-5.11328125,0.35107421875,34.66386554621849,-92.64705882352942,-3.5014005602240896
2.095,IMU0,-0.81982421875,-5.10595703125,0.3486328125,34.31372549019608,-84.593837535014,-1.5406162464985995
2.105,IMU0,-0.82080078125,-5.111328125,0.3349609375,32.77310924369748,-78.5014005602241,0.2801120448179272
2.115,IMU0,-0.8310546875,-5.10693359375,0.31298828125,31.51260504201681,-73.80952380952381,2.450980392156863
2.125,IMU0,-0.8154296875,-5.09716796875,0.28173828125,30.3921568627451,-70.0280112044818,4.971988795518207
2.135,IMU0,-0.7880859375,-5.0908203125,0.27392578125,28.8515406162465,-67.01680672268908,7.072829131652662
2.145,IMU0,-0.7998046875,-5.0869140625,0.25146484375,27.3109243697479,-65.68627450980392,10.224089635854343
2.155,IMU0,-0.80029296875,-5.0791015625,0.2236328125,25.490196078431374,-64.2156862745098,12.745098039215687
2.165,IMU0,-0.765625,-5.07373046875,0.205078125,24.159663865546218,-62.254901960784316,15.126050420168069
2.175,IMU0,-0.76904296875,-5.07421875,0.18994140625,22.969187675070028,-59.943977591036415,18.347338935574232
2.185,IMU0,-0.759765625,-5.09130859375,0.1689453125,21.218487394957982,-58.4733893557423,20.798319327731093
2.195,IMU0,-0.7294921875,-5.0869140625,0.15087890625,20.098039215686274,-58.89355742296919,23.10924369747899
2.205,IMU0,-0.71337890625,-5.09033203125,0.1328125,18.977591036414566,-59.59383753501401,26.050420168067227
2.215,IMU0,-0.6875,-5.11279296875,0.1220703125,17.857142857142858,-60.85434173669468,28.43137254901961
2.225,IMU0,-0.65771484375,-5.10498046875,0.11328125,17.016806722689076,-63.445378151260506,30.46218487394958
2.235,IMU0,-0.634765625,-5.09521484375,0.1015625,15.966386554621849,-67.85714285714286,33.12324929971989
2.245,IMU0,-0.60986328125,-5.0791015625,0.10888671875,15.336134453781513,-73.52941176470588,34.733893557422974
2.255,IMU0,-0.58642578125,-5.06396484375,0.09814453125,14.075630252100842,-82.00280112044818,36.5546218487395
2.265,IMU0,-0.55712890625,-5.07177734375,0.08447265625,13.305322128851541,-91.73669467787116,38.51540616246499
2.275,IMU0,-0.5244140625,-5.07177734375,0.0673828125,12.675070028011206,-102.38095238095238,39.635854341736696
2.285,IMU0,-0.5224609375,-5.0732421875,0.0478515625,12.044817927170868,-115.12605042016807,40.54621848739496
2.295,IMU0,-0.4951171875,-5.06982421875,0.0634765625,11.134453781512606,-130.46218487394958,41.1764705882353
2.305,IMU0,-0.47216796875,-5.06640625,0.03515625,9.803921568627452,-146.42857142857144,41.246498599439775
2.315,IMU0,-0.43994140625,-5.1318359375,0.03125,8.19327731092437,-175.70028011204482,40.68627450980392
2.325,IMU0,-0.43505859375,-5.107421875,0.015625,7.563025210084034,-190.0560224089636,40.476190476190474
2.335,IMU0,-0.40869140625,-5.08984375,0.017578125,6.652661064425771,-207.49299719887955,39.635854341736696
2.345,IMU0,-0.408203125,-5.07470703125,0.0146484375,4.69187675070028,-224.57983193277312,38.58543417366947
2.355,IMU0,-0.40673828125,-5.0712890625,0.00146484375,3.641456582633053,-240.19607843137257,37.81512605042017
2.365,IMU0,-0.40185546875,-5.064453125,0.00732421875,2.2408963585434174,-255.812324929972,36.5546218487395
2.375,IMU0,-0.41357421875,-5.04833984375,0.00146484375,0.0700280112044818,-271.5686274509804,35.64425770308124
2.385,IMU0,-0.41552734375,-5.04150390625,0.0078125,-1.4705882352941178,-286.41456582633054,34.87394957983194
2.395,IMU0,-0.41357421875,-5.04736328125,-0.00732421875,-3.151260504201681,-300.98039215686276,33.753501400560225
2.405,IMU0,-0.4267578125,-5.048828125,0.0009765625,-4.341736694677872,-315.0560224089636,33.26330532212885
2.415,IMU0,-0.44287109375,-5.06640625,0.0166015625,-6.0924369747899165,-328.78151260504205,32.49299719887955
2.425,IMU0,-0.4560546875,-5.091796875,-0.0078125,-7.983193277310924,-340.6862745098039,32.212885154061624
2.435,IMU0,-0.48291015625,-5.06494140625,0.01123046875,-8.053221288515406,-353.1512605042017,31.862745098039216
2.445,IMU0,-0.4501953125,-5.06787109375,0.0263671875,-10.084033613445378,-365.33613445378154,31.65266106442577
2.455,IMU0,-0.49365234375,-5.06103515625,0.02734375,-11.27450980392157,-375.98039215686276,33.05322128851541
2.465,IMU0,-0.52001953125,-5.0546875,0.06103515625,-11.764705882352942,-384.94397759103646,32.63305322128852
2.475,IMU0,-0.52197265625,-5.0771484375,0.072265625,-12.745098039215687,-393.4873949579832,33.26330532212885
2.485,IMU0,-0.52587890625,-5.05908203125,0.1181640625,-12.745098039215687,-400.8403361344538,34.66386554621849
2.495,IMU0,-0.5107421875,-5.0419921875,0.11962890625,-13.65546218487395,-408.5434173669468,35.85434173669468
2.505,IMU0,-0.52001953125,-5.0205078125,0.15673828125,-13.025210084033613,-417.01680672268907,37.53501400560224
2.515,IMU0,-0.5771484375,-5.01318359375,0.181640625,-13.095238095238097,-424.85994397759106,38.095238095238095
2.525,IMU0,-0.5390625,-5.0,0.1787109375,-12.88515406162465,-432.63305322128855,38.51540616246499
2.535,IMU0,-0.57177734375,-4.99853515625,0.20556640625,-11.414565826330533,-439.0056022408964,40.476190476190474
2.545,IMU0,-0.55810546875,-4.994140625,0.20947265625,-11.414565826330533,-444.95798319327736,41.38655462184874
2.555,IMU0,-0.57568359375,-4.9970703125,0.2333984375,-10.154061624649861,-450.28011204481794,42.15686274509804
2.565,IMU0,-0.56396484375,-5.02880859375,0.27978515625,-9.033613445378151,-454.6218487394958,43.27731092436975
2.575,IMU0,-0.5458984375,-5.03271484375,0.28271484375,-8.473389355742297,-459.0336134453782,43.977591036414566
2.585,IMU0,-0.5703125,-5.01953125,0.29736328125,-6.512605042016807,-464.3557422969188,44.11764705882353
2.595,IMU0,-0.53955078125,-4.99365234375,0.30859375,-4.69187675070028,-470.30812324929974,44.04761904761905
2.605,IMU0,-0.56298828125,-4.97314453125,0.3359375,-3.2212885154061626,-476.8207282913165,44.32773109243698
2.615,IMU0,-0.5693359375,-5.00830078125,0.32373046875,-1.9607843137254903,-482.843137254902,43.34733893557423
2.625,IMU0,-0.57080078125,-5.0576171875,0.326171875,0.4901960784313726,-488.515406162465,42.92717086834734
2.635,IMU0,-0.54296875,-4.99169921875,0.34423828125,2.170868347338936,-493.5574229691877,41.9467787114846
2.645,IMU0,-0.54150390625,-4.94921875,0.35400390625,3.431372549019608,-498.4593837535014,41.246498599439775
2.655,IMU0,-0.5771484375,-4.9375,0.32373046875,4.761904761904762,-503.5714285714286,40.19607843137255
2.665,IMU0,-0.5703125,-4.92578125,0.30615234375,6.862745098039216,-508.4033613445378,38.02521008403362
2.675,IMU0,-0.5947265625,-4.91748046875,0.31591796875,7.773109243697479,-517.2268907563025,36.76470588235294
2.685,IMU0,-0.607421875,-4.91162109375,0.32373046875,8.96358543417367,-521.5686274509804,35.15406162464986
2.695,IMU0,-0.61767578125,-4.90673828125,0.32275390625,9.523809523809524,-523.8795518207284,34.173669467787114
2.705,IMU0,-0.64208984375,-4.90771484375,0.28564453125,10.084033613445378,-525.5602240896359,32.84313725490196
2.715,IMU0,-0.587890625,-4.904296875,0.3173828125,11.27450980392157,-527.4509803921569,32.28291316526611
2.725,IMU0,-0.63671875,-4.91162109375,0.31005859375,10.57422969187675,-529.5518207282913,32.563025210084035
2.735,IMU0,-0.5947265625,-4.919921875,0.2763671875,11.554621848739496,-532.0028011204482,30.3921568627451
2.745,IMU0,-0.5849609375,-4.92236328125,0.2802734375,11.624649859943979,-533.5434173669468,30.672268907563026
2.755,IMU0,-0.63037109375,-4.921875,0.23486328125,10.92436974789916,-536.484593837535,30.252100840336137
2.765,IMU0,-0.6181640625,-4.91357421875,0.25537109375,11.904761904761905,-539.7058823529412,27.801120448179272
2.775,IMU0,-0.66943359375,-4.89013671875,0.26416015625,10.92436974789916,-542.2268907563025,28.43137254901961
2.785,IMU0,-0.68212890625,-4.90966796875,0.220703125,10.294117647058824,-543.9775910364145,26.96078431372549
2.795,IMU0,-0.7021484375,-4.9345703125,0.23388671875,11.204481792717088,-544.8179271708684,26.750700280112046
2.805,IMU0,-0.77490234375,-4.9072265625,0.255859375,10.294117647058824,-544.9579831932773,27.521008403361346
2.815,IMU0,-0.75732421875,-4.86767578125,0.28662109375,8.823529411764707,-544.8879551820728,25.840336134453782
2.825,IMU0,-0.70654296875,-4.869140625,0.32568359375,8.893557422969188,-544.2577030812325,28.43137254901961
2.835,IMU0,-0.80224609375,-4.87744140625,0.353515625,9.38375350140056,-542.296918767507,30.32212885154062
2.845,IMU0,-0.8037109375,-4.86181640625,0.349609375,9.313725490196079,-540.0560224089636,28.571428571428573
2.855,IMU0,-0.865234375,-4.84814453125,0.31005859375,11.554621848739496,-535.7843137254902,29.901960784313726
2.865,IMU0,-0.8212890625,-4.837890625,0.3486328125,13.23529411764706,-530.2521008403362,29.971988795518207
2.875,IMU0,-0.84130859375,-4.82373046875,0.3232421875,13.865546218487395,-525.0,31.442577030812327
2.885,IMU0,-0.78076171875,-4.8115234375,0.3671875,15.756302521008404,-519.187675070028,33.12324929971989
2.895,IMU0,-0.79931640625,-4.8017578125,0.35205078125,17.15686274509804,-514.4957983193277,34.173669467787114
2.905,IMU0,-0.82763671875,-4.80517578125,0.37939453125,19.46778711484594,-510.7843137254902,33.61344537815126
2.915,IMU0,-0.8486328125,-4.796875,0.35009765625,21.07843137254902,-507.2829131652661,33.19327731092437
2.925,IMU0,-0.82763671875,-4.7998046875,0.33447265625,23.87955182072829,-503.08123249299723,33.05322128851541
2.935,IMU0,-0.85205078125,-4.80810546875,0.3642578125,26.47058823529412,-499.6498599439776,32.00280112044818
2.945,IMU0,-0.8369140625,-4.814453125,0.35693359375,26.47058823529412,-497.8291316526611,32.913165266106446
2.955,IMU0,-0.873046875,-4.80126953125,0.3134765625,28.36134453781513,-496.218487394958,33.26330532212885
2.965,IMU0,-0.85400390625,-4.79541015625,0.29248046875,30.742296918767508,-494.0476190476191,33.05322128851541
2.975,IMU0,-0.837890625,-4.81103515625,0.3203125,31.372549019607845,-494.6078431372549,34.38375350140056
2.985,IMU0,-0.85498046875,-4.84033203125,0.2939453125,31.232492997198882,-498.249299719888,35.57422969187675
2.995,IMU0,-0.869140625,-4.806640625,0.2294921875,31.932773109243698,-501.7507002801121,35.92436974789916
3.005,IMU0,-0.7626953125,-4.77978515625,0.2509765625,32.983193277310924,-504.6218487394958,37.11484593837535
3.015,IMU0,-0.798828125,-4.775390625,0.23974609375,31.932773109243698,-508.4033613445378,39.49579831932773
3.025,IMU0,-0.751953125,-4.76611328125,0.20654296875,32.212885154061624,-514.4957983193277,39.00560224089636
3.035,IMU0,-0.7958984375,-4.74755859375,0.17138671875,32.42296918767507,-526.8207282913165,40.89635854341737
3.045,IMU0,-0.8232421875,-4.748046875,0.09423828125,32.212885154061624,-534.1036414565826,40.19607843137255
3.055,IMU0,-0.833984375,-4.7705078125,0.10595703125,32.703081232493,-539.8459383753502,41.596638655462186
3.065,IMU0,-0.91748046875,-4.79052734375,0.0615234375,30.532212885154063,-546.5686274509804,43.4873949579832
3.075,IMU0,-0.89794921875,-4.76904296875,0.03662109375,29.831932773109244,-551.4705882352941,45.30812324929972
3.085,IMU0,-0.9150390625,-4.7392578125,0.0615234375,29.901960784313726,-555.1120448179272,48.38935574229692
3.095,IMU0,-0.96484375,-4.720703125,0.07861328125,27.521008403361346,-559.3837535014006,52.3109243697479
3.105,IMU0,-0.94482421875,-4.69873046875,0.0361328125,26.750700280112046,-564.7759103641457,56.23249299719888
3.115,IMU0,-0.95849609375,-4.68017578125,0.08935546875,27.941176470588236,-569.047619047619,60.99439775910364
3.125,IMU0,-0.9296875,-4.6748046875,0.06640625,26.820728291316527,-574.7198879551821,65.54621848739497
3.135,IMU0,-0.89990234375,-4.69091796875,0.0478515625,28.011204481792717,-580.6022408963586,69.25770308123249
3.145,IMU0,-0.8876953125,-4.68701171875,0.07177734375,29.69187675070028,-588.3053221288516,72.89915966386555
3.155,IMU0,-0.83642578125,-4.66650390625,0.02490234375,29.69187675070028,-595.9383753501401,75.84033613445378
3.165,IMU0,-0.82177734375,-4.67529296875,0.03369140625,32.983193277310924,-604.6918767507003,79.27170868347339
3.175,IMU0,-0.7861328125,-4.6572265625,0.0068359375,33.54341736694678,-616.1064425770309,80.95238095238095
3.185,IMU0,-0.75537109375,-4.63037109375,-0.01953125,35.43417366946779,-628.0812324929972,82.98319327731093
3.195,IMU0,-0.74267578125,-4.619140625,-0.03076171875,37.18487394957983,-641.5966386554622,84.2436974789916
3.205,IMU0,-0.71728515625,-4.59521484375,-0.06201171875,36.694677871148464,-656.4425770308123,84.80392156862746
3.215,IMU0,-0.7216796875,-4.59326171875,-0.091796875,37.46498599439776,-672.4789915966387,85.7843137254902
3.225,IMU0,-0.7177734375,-4.5830078125,-0.11767578125,36.904761904761905,-690.0560224089636,85.29411764705883
3.235,IMU0,-0.7197265625,-4.576171875,-0.1435546875,35.714285714285715,-709.1036414565826,85.50420168067227
3.245,IMU0,-0.744140625,-4.5771484375,-0.1572265625,33.82352941176471,-728.781512605042,85.71428571428572
3.255,IMU0,-0.7509765625,-4.5830078125,-0.205078125,31.372549019607845,-748.5994397759104,86.20448179271709
3.265,IMU0,-0.7373046875,-4.5908203125,-0.20458984375,29.551820728291318,-766.7366946778711,87.6750700280112
3.275,IMU0,-0.76904296875,-4.5947265625,-0.189453125,27.941176470588236,-785.0840336134454,89.2156862745098
3.285,IMU0,-0.80908203125,-4.5791015625,-0.2099609375,25.210084033613448,-802.8011204481793,91.03641456582633
3.295,IMU0,-0.8388671875,-4.55224609375,-0.2353515625,23.179271708683473,-817.1568627450981,93.27731092436976
3.305,IMU0,-0.85595703125,-4.5439453125,-0.2236328125,22.478991596638657,-827.5910364145659,96.42857142857143
3.315,IMU0,-0.91259765625,-4.51806640625,-0.22900390625,21.9187675070028,-834.593837535014,99.92997198879553
3.325,IMU0,-0.9052734375,-4.50341796875,-0.18017578125,22.058823529411764,-839.8459383753502,103.36134453781513
3.335,IMU0,-0.86083984375,-4.48291015625,-0.1767578125,22.338935574229694,-845.0980392156863,107.3529411764706
3.345,IMU0,-0.87548828125,-4.48193359375,-0.14111328125,24.57983193277311,-849.1596638655462,112.25490196078432
3.355,IMU0,-0.85009765625,-4.48779296875,-0.13427734375,26.89075630252101,-852.9411764705883,114.35574229691878
3.365,IMU0,-0.86181640625,-4.47509765625,-0.15478515625,29.971988795518207,-857.6330532212886,116.73669467787116
3.375,IMU0,-0.849609375,-4.45263671875,-0.12841796875,33.403361344537814,-863.5154061624651,117.3669467787115
3.385,IMU0,-0.802734375,-4.421875,-0.15869140625,34.66386554621849,-872.1288515406163,117.50700280112045
3.395,IMU0,-0.794921875,-4.4052734375,-0.15576171875,37.324929971988794,-882.0028011204482,117.50700280112045
3.405,IMU0,-0.8115234375,-4.3798828125,-0.19384765625,37.675070028011206,-906.7927170868347,115.61624649859945
3.415,IMU0,-0.81640625,-4.37841796875,-0.181640625,37.81512605042017,-921.0084033613446,113.72549019607844
3.425,IMU0,-0.83349609375,-4.3515625,-0.216796875,36.20448179271709,-935.2240896358544,112.88515406162466
3.435,IMU0,-0.86865234375,-4.34326171875,-0.24072265625,35.43417366946779,-947.1288515406163,113.23529411764706
3.445,IMU0,-0.90234375,-4.34228515625,-0.26171875,34.523809523809526,-956.4425770308123,113.58543417366947
3.455,IMU0,-0.88232421875,-4.34326171875,-0.27978515625,34.173669467787114,-963.8655462184875,115.82633053221289
3.465,IMU0,-0.92529296875,-4.31640625,-0.275390625,34.523809523809526,-967.577030812325,119.32773109243698
3.475,IMU0,-0.91943359375,-4.30322265625,-0.25146484375,34.45378151260504,-970.3081232492998,122.19887955182074
3.485,IMU0,-0.92626953125,-4.30712890625,-0.2568359375,35.22408963585434,-974.5098039215686,125.84033613445379
3.495,IMU0,-0.9072265625,-4.3212890625,-0.24462890625,37.74509803921569,-978.5014005602242,129.9719887955182
3.505,IMU0,-0.89208984375,-4.28515625,-0.26220703125,39.77591036414566,-986.6946778711485,133.61344537815125
3.515,IMU0,-0.9072265625,-4.228515625,-0.2421875,42.997198879551824,-1000.3501400560225,136.55462184873952
3.525,IMU0,-0.90380859375,-4.19189453125,-0.24609375,45.09803921568628,-1018.5574229691878,138.16526610644257
3.535,IMU0,-0.89892578125,-4.177734375,-0.26220703125,46.77871148459384,-1037.3949579831933,140.0560224089636
3.545,IMU0,-0.91455078125,-4.15478515625,-0.2744140625,49.15966386554622,-1053.9915966386554,142.36694677871148
3.555,IMU0,-0.91015625,-4.11962890625,-0.24853515625,50.35014005602241,-1071.9887955182073,143.4173669467787
3.565,IMU0,-0.91943359375,-4.08837890625,-0.25341796875,51.19047619047619,-1091.0364145658264,146.07843137254903
3.575,IMU0,-0.9189453125,-4.0517578125,-0.25,52.59103641456583,-1111.1344537815125,148.31932773109244
3.585,IMU0,-0.9248046875,-4.02783203125,-0.25390625,53.57142857142858,-1130.1820728291318,150.63025210084035
3.595,IMU0,-0.9404296875,-4.01904296875,-0.2314453125,54.69187675070028,-1148.3893557422969,153.0812324929972
3.605,IMU0,-0.96142578125,-3.99853515625,-0.2412109375,55.32212885154062,-1166.5266106442577,155.67226890756302
3.615,IMU0,-0.97509765625,-3.978515625,-0.2333984375,57.352941176470594,-1183.3333333333335,158.26330532212887
3.625,IMU0,-0.97216796875,-3.95166015625,-0.23828125,58.40336134453782,-1197.96918767507,161.2044817927171
3.635,IMU0,-0.97216796875,-3.9228515625,-0.23095703125,60.22408963585434,-1214.9859943977592,164.00560224089637
3.645,IMU0,-1.0283203125,-3.88623046875,-0.203125,62.39495798319328,-1235.7843137254902,166.31652661064427
3.655,IMU0,-1.017578125,-3.8525390625,-0.20068359375,64.2156862745098,-1258.8235294117649,168.34733893557424
3.665,IMU0,-1.03759765625,-3.81591796875,-0.19140625,67.29691876750701,-1280.6022408963586,171.42857142857144
3.675,IMU0,-1.07373046875,-3.7890625,-0.1728515625,70.09803921568627,-1302.2408963585435,173.73949579831933
3.685,IMU0,-1.09033203125,-3.7392578125,-0.16748046875,73.38935574229693,-1323.7394957983195,174.29971988795518
3.695,IMU0,-1.11767578125,-3.6943359375,-0.16064453125,77.52100840336135,-1343.137254901961,175.3501400560224
3.705,IMU0,-1.14111328125,-3.6484375,-0.15478515625,81.09243697478992,-1363.515406162465,176.33053221288517
3.715,IMU0,-1.1748046875,-3.60693359375,-0.10791015625,84.94397759103641,-1386.4145658263305,176.40056022408965
3.725,IMU0,-1.20263671875,-3.5615234375,-0.107421875,88.51540616246498,-1407.142857142857,176.47058823529412
3.735,IMU0,-1.24755859375,-3.55029296875,-0.10107421875,92.71708683473389,-1427.2408963585435,175.4201680672269
3.745,IMU0,-1.294921875,-3.515625,-0.1806640625,96.00840336134455,-1445.0280112044818,173.9495798319328
3.755,IMU0,-1.31884765625,-3.49169921875,-0.04833984375,102.24089635854342,-1459.1736694677872,172.05882352941177
3.765,IMU0,-1.42724609375,-3.4091796875,-0.0068359375,104.69187675070029,-1477.8011204481793,173.24929971988797
3.775,IMU0,-1.40185546875,-3.3740234375,0.0546875,109.87394957983194,-1480.3921568627452,171.70868347338936
3.785,IMU0,-1.47314453125,-3.32373046875,0.12841796875,110.71428571428572,-1482.3529411764707,173.17927170868347
3.795,IMU0,-1.5478515625,-3.24365234375,-0.029296875,112.04481792717087,-1486.6946778711485,171.35854341736695
3.805,IMU0,-1.52001953125,-3.21044921875,0.04931640625,121.1484593837535,-1488.375350140056,164.77591036414566
3.815,IMU0,-1.55224609375,-3.18310546875,0.12451171875,126.5406162464986,-1489.2857142857144,162.2549019607843
3.825,IMU0,-1.57275390625,-3.17529296875,0.1845703125,127.52100840336135,-1492.0868347338935,157.63305322128852
3.835,IMU0,-1.6298828125,-3.13671875,0.0966796875,126.33053221288516,-1490.966386554622,154.13165266106444
3.845,IMU0,-1.74853515625,-3.11767578125,0.1796875,127.38095238095238,-1491.0364145658264,151.40056022408965
3.855,IMU0,-1.73388671875,-3.09716796875,0.26416015625,125.4201680672269,-1490.4761904761906,146.9187675070028
3.865,IMU0,-1.69873046875,-3.08740234375,0.29443359375,123.03921568627452,-1485.15406162465,148.0392156862745
3.875,IMU0,-1.890625,-3.10595703125,0.39794921875,122.26890756302521,-1480.3921568627452,147.12885154061624
3.885,IMU0,-1.95703125,-3.05615234375,0.32470703125,117.64705882352942,-1473.9495798319329,143.4873949579832
3.895,IMU0,-1.94873046875,-3.02490234375,0.3515625,120.16806722689076,-1463.235294117647,139.42577030812325
3.905,IMU0,-1.9404296875,-3.00732421875,0.46044921875,123.24929971988796,-1452.1008403361345,134.6638655462185
3.915,IMU0,-1.966796875,-2.98193359375,0.42041015625,120.93837535014006,-1441.106442577031,131.79271708683473
3.925,IMU0,-1.90576171875,-2.9111328125,0.48583984375,121.63865546218489,-1427.731092436975,124.92997198879553
3.935,IMU0,-1.75732421875,-2.904296875,0.591796875,122.82913165266108,-1406.7226890756303,120.72829131652662
3.945,IMU0,-1.7470703125,-2.87939453125,0.54638671875,118.20728291316527,-1384.453781512605,121.49859943977592
3.955,IMU0,-1.68115234375,-2.8583984375,0.41455078125,113.79551820728292,-1362.1148459383753,114.98599439775911
3.965,IMU0,-1.56396484375,-2.85595703125,0.54931640625,113.02521008403362,-1346.0084033613446,112.53501400560225
3.975,IMU0,-1.65380859375,-2.83642578125,0.5478515625,106.65266106442577,-1334.453781512605,112.6750700280112
3.985,IMU0,-1.58642578125,-2.80029296875,0.45458984375,101.5406162464986,-1317.997198879552,108.05322128851542
3.995,IMU0,-1.59765625,-2.79833984375,0.56787109375,103.0812324929972,-1300.560224089636,108.8935574229692
4.005,IMU0,-1.595703125,-2.78125,0.44091796875,93.76750700280112,-1285.4341736694678,109.2436974789916
4.015,IMU0,-1.4970703125,-2.7841796875,0.4736328125,96.70868347338936,-1268.8375350140057,105.67226890756304
4.025,IMU0,-1.5,-2.787109375,0.490234375,93.62745098039215,-1257.9131652661065,110.4341736694678
4.035,IMU0,-1.498046875,-2.7978515625,0.46875,87.6750700280112,-1251.1904761904761,109.87394957983194
4.045,IMU0,-1.34521484375,-2.787109375,0.51220703125,88.16526610644259,-1248.1792717086835,109.593837535014
4.055,IMU0,-1.41552734375,-2.76904296875,0.4521484375,84.38375350140056,-1247.7591036414567,114.77591036414566
4.065,IMU0,-1.29638671875,-2.755859375,0.31494140625,82.84313725490196,-1247.2689075630253,109.73389355742297
4.075,IMU0,-1.22900390625,-2.740234375,0.40673828125,86.34453781512606,-1246.0784313725492,113.02521008403362
4.085,IMU0,-1.25927734375,-2.74365234375,0.3427734375,81.44257703081233,-1248.8095238095239,114.84593837535014
4.095,IMU0,-1.1748046875,-2.73193359375,0.220703125,80.53221288515407,-1252.3809523809525,110.64425770308124
4.105,IMU0,-1.201171875,-2.7138671875,0.28564453125,81.9327731092437,-1255.3921568627452,116.66666666666667
4.115,IMU0,-1.25537109375,-2.67724609375,0.21875,76.75070028011204,-1263.375350140056,115.406162464986
4.125,IMU0,-1.2626953125,-2.64697265625,0.2275390625,75.77030812324931,-1268.8375350140057,118.97759103641457
4.135,IMU0,-1.251953125,-2.6279296875,0.09912109375,71.28851540616247,-1274.5098039215686,117.3669467787115
4.145,IMU0,-1.2451171875,-2.5986328125,0.22607421875,74.57983193277312,-1278.0812324929973,120.51820728291317
4.155,IMU0,-1.28125,-2.5546875,0.1728515625,69.04761904761905,-1283.7535014005603,121.98879551820728
4.165,IMU0,-1.23681640625,-2.50341796875,0.15234375,69.11764705882354,-1287.5350140056023,122.47899159663866
4.175,IMU0,-1.2109375,-2.4775390625,0.2294921875,70.58823529411765,-1290.4761904761906,125.77030812324931
4.185,IMU0,-1.24169921875,-2.4443359375,0.18408203125,68.13725490196079,-1294.3977591036414,128.99159663865547
4.195,IMU0,-1.17626953125,-2.3779296875,0.14794921875,69.95798319327731,-1297.4089635854343,127.73109243697479
4.205,IMU0,-1.21923828125,-2.30419921875,0.19091796875,71.42857142857143,-1301.2605042016808,131.72268907563026
4.215,IMU0,-1.23876953125,-2.24658203125,0.2001953125,71.5686274509804,-1307.0728291316527,130.46218487394958
4.225,IMU0,-1.154296875,-2.1640625,0.1787109375,70.0280112044818,-1313.795518207283,128.22128851540617
4.235,IMU0,-1.22607421875,-2.08544921875,0.15625,71.07843137254902,-1320.6582633053222,129.76190476190476
4.245,IMU0,-1.19091796875,-2.00634765625,0.14794921875,70.0280112044818,-1328.2212885154063,127.87114845938376
4.255,IMU0,-1.2275390625,-1.94921875,0.1669921875,68.76750700280112,-1335.7843137254902,127.87114845938376
4.265,IMU0,-1.19873046875,-1.8759765625,0.1552734375,66.73669467787116,-1342.2268907563025,127.17086834733894
4.275,IMU0,-1.2294921875,-1.81787109375,0.17333984375,65.75630252100841,-1346.9887955182073,129.48179271708685
4.285,IMU0,-1.21044921875,-1.74267578125,0.15087890625,65.89635854341736,-1348.7394957983195,129.83193277310926
4.295,IMU0,-1.1923828125,-1.69091796875,0.19482421875,67.29691876750701,-1349.3697478991596,130.11204481792717
4.305,IMU0,-1.18310546875,-1.599609375,0.20458984375,66.80672268907563,-1349.2997198879552,131.23249299719888
4.315,IMU0,-1.12060546875,-1.5390625,0.19287109375,66.59663865546219,-1351.4005602240898,130.67226890756302
4.325,IMU0,-1.171875,-1.4736328125,0.18115234375,66.1764705882353,-1352.170868347339,131.37254901960785
4.335,IMU0,-1.1435546875,-1.4345703125,0.2216796875,66.03641456582633,-1355.3921568627452,129.2016806722689
4.345,IMU0,-1.19677734375,-1.3603515625,0.14501953125,64.49579831932773,-1360.3641456582634,126.82072829131653
4.355,IMU0,-1.16796875,-1.298828125,0.20263671875,63.72549019607843,-1364.6358543417368,126.75070028011206
4.365,IMU0,-1.10595703125,-1.23974609375,0.19482421875,61.06442577030813,-1366.8767507002801,128.36134453781514
4.375,IMU0,-1.1259765625,-1.2294921875,0.21630859375,62.39495798319328,-1366.3165266106444,129.62184873949582
4.385,IMU0,-1.12353515625,-1.13330078125,0.17138671875,61.694677871148464,-1367.7871148459385,128.36134453781514
4.395,IMU0,-1.08154296875,-1.03955078125,0.15478515625,64.77591036414566,-1366.3865546218487,128.57142857142858
4.405,IMU0,-1.1123046875,-0.93701171875,0.1748046875,66.1764705882353,-1367.9271708683475,129.83193277310926
4.415,IMU0,-1.19921875,-0.861328125,0.140625,63.37535014005603,-1371.218487394958,129.83193277310926
4.425,IMU0,-1.111328125,-0.8193359375,0.2236328125,64.35574229691878,-1374.9299719887956,126.40056022408965
4.435,IMU0,-1.16796875,-0.74853515625,0.12939453125,60.22408963585434,-1378.0812324929973,129.55182072829132
4.445,IMU0,-1.12109375,-0.6630859375,0.12841796875,61.20448179271709,-1378.8515406162467,127.59103641456583
4.455,IMU0,-1.10400390625,-0.5771484375,0.19677734375,63.16526610644258,-1377.591036414566,130.0420168067227
4.465,IMU0,-1.1396484375,-0.5107421875,0.15576171875,61.274509803921575,-1377.871148459384,132.3529411764706
4.475,IMU0,-1.0791015625,-0.44775390625,0.1513671875,62.254901960784316,-1376.8907563025211,130.11204481792717
4.485,IMU0,-1.0947265625,-0.3837890625,0.12744140625,64.07563025210084,-1376.9607843137255,131.23249299719888
4.495,IMU0,-1.0361328125,-0.2998046875,0.15087890625,64.00560224089637,-1379.6918767507004,128.8515406162465
4.505,IMU0,-1.0400390625,-0.1865234375,0.158203125,64.28571428571429,-1382.703081232493,129.6918767507003
4.515,IMU0,-1.07666015625,-0.04736328125,0.1494140625,63.58543417366947,-1385.9243697478992,128.921568627451
4.525,IMU0,-1.02294921875,0.103515625,0.12841796875,62.60504201680673,-1388.795518207283,126.12044817927172
4.535,IMU0,-1.06005859375,0.1650390625,0.216796875,63.58543417366947,-1394.747899159664,128.921568627451
4.545,IMU0,-1.078125,0.27197265625,0.103515625,57.142857142857146,-1398.5294117647059,130.0420168067227
4.555,IMU0,-1.0107421875,0.39794921875,0.1474609375,57.77310924369748,-1397.4089635854343,130.95238095238096
4.565,IMU0,-1.04052734375,0.44287109375,0.20947265625,59.38375350140056,-1403.2913165266107,132.42296918767508
4.575,IMU0,-1.0166015625,0.63037109375,0.01953125,55.392156862745104,-1393.2773109243699,134.87394957983193
4.585,IMU0,-0.94091796875,0.580078125,0.22314453125,62.53501400560224,-1398.6694677871149,133.4733893557423
4.595,IMU0,-1.0078125,0.6845703125,0.07861328125,56.792717086834735,-1394.187675070028,139.2857142857143
4.605,IMU0,-1.00830078125,0.705078125,0.13818359375,61.76470588235294,-1393.2072829131653,134.87394957983193
4.615,IMU0,-0.9150390625,0.74072265625,0.11572265625,62.3249299719888,-1395.7983193277312,135.29411764705884
4.625,IMU0,-1.029296875,0.77001953125,0.16943359375,62.53501400560224,-1398.5294117647059,137.04481792717087
4.635,IMU0,-0.91943359375,0.8095703125,0.13134765625,65.26610644257704,-1395.0280112044818,130.25210084033614
4.645,IMU0,-0.9736328125,0.8681640625,0.1171875,66.80672268907563,-1394.8179271708684,134.733893557423
4.655,IMU0,-0.966796875,0.919921875,0.1591796875,68.27731092436976,-1399.2997198879552,131.30252100840337
4.665,IMU0,-0.9169921875,0.9912109375,0.11279296875,70.7983193277311,-1399.4397759103642,134.10364145658264
4.675,IMU0,-0.95703125,1.03857421875,0.1875,67.50700280112045,-1403.1512605042017,136.27450980392157
4.685,IMU0,-0.9287109375,1.1005859375,0.0771484375,64.2156862745098,-1403.0812324929973,137.39495798319328
4.695,IMU0,-0.9130859375,1.05810546875,0.17041015625,66.66666666666667,-1404.9719887955182,140.75630252100842
4.705,IMU0,-0.9208984375,1.06982421875,0.1357421875,63.865546218487395,-1406.5826330532213,140.47619047619048
4.715,IMU0,-0.89013671875,1.0791015625,0.16552734375,64.84593837535014,-1403.501400560224,140.19607843137254
4.725,IMU0,-0.91357421875,1.11083984375,0.16650390625,64.14565826330532,-1404.1316526610644,139.2156862745098
4.735,IMU0,-0.90576171875,1.1767578125,0.126953125,62.95518207282913,-1401.4705882352941,137.81512605042016
4.745,IMU0,-0.86962890625,1.18701171875,0.20751953125,66.24649859943978,-1404.201680672269,135.8543417366947
4.755,IMU0,-0.9111328125,1.228515625,0.13720703125,65.12605042016807,-1403.5714285714287,137.46498599439778
4.765,IMU0,-0.88720703125,1.2060546875,0.18408203125,65.54621848739497,-1402.450980392157,137.53501400560225
4.775,IMU0,-0.90478515625,1.21142578125,0.20849609375,63.095238095238095,-1400.9103641456584,138.8655462184874
4.785,IMU0,-0.87939453125,1.25537109375,0.13427734375,62.3249299719888,-1395.5882352941178,136.48459383753502
4.795,IMU0,-0.82763671875,1.29541015625,0.2490234375,65.54621848739497,-1395.5182072829132,135.15406162464987
4.805,IMU0,-0.90625,1.353515625,0.2255859375,63.79551820728292,-1396.358543417367,133.19327731092437
4.815,IMU0,-0.89453125,1.40869140625,0.14892578125,68.55742296918768,-1393.3473389355743,128.71148459383755
4.825,IMU0,-0.84716796875,1.4482421875,0.24365234375,71.21848739495799,-1391.7366946778711,131.86274509803923
4.835,IMU0,-0.9189453125,1.5087890625,0.12939453125,65.19607843137256,-1388.7254901960785,135.08403361344537
4.845,IMU0,-0.85400390625,1.50244140625,0.185546875,68.0672268907563,-1381.232492997199,130.74229691876752
4.855,IMU0,-0.93212890625,1.5546875,0.134765625,67.85714285714286,-1375.4901960784314,130.3221288515406
4.865,IMU0,-0.83056640625,1.5087890625,0.18798828125,68.90756302521008,-1375.0700280112046,129.06162464985994
4.875,IMU0,-0.93603515625,1.52099609375,0.11572265625,66.66666666666667,-1367.9271708683475,130.67226890756302
4.885,IMU0,-0.89697265625,1.54248046875,0.11865234375,68.27731092436976,-1363.5854341736695,124.36974789915966
4.895,IMU0,-0.80908203125,1.53515625,0.205078125,68.76750700280112,-1356.0224089635856,125.70028011204482
4.905,IMU0,-0.919921875,1.5810546875,0.18994140625,65.75630252100841,-1347.6190476190477,124.36974789915966
4.915,IMU0,-0.8779296875,1.6123046875,0.1787109375,64.9859943977591,-1338.235294117647,122.89915966386555
4.925,IMU0,-0.89404296875,1.607421875,0.2021484375,64.28571428571429,-1330.812324929972,124.85994397759104
4.935,IMU0,-0.92529296875,1.638671875,0.17529296875,63.655462184873954,-1322.829131652661,121.77871148459384
4.945,IMU0,-0.80029296875,1.6357421875,0.12353515625,65.54621848739497,-1310.7142857142858,122.54901960784315
4.955,IMU0,-0.77734375,1.66015625,0.162109375,68.0672268907563,-1297.7591036414567,124.15966386554622
4.965,IMU0,-0.8125,1.68212890625,0.1201171875,69.67787114845939,-1283.8935574229693,124.01960784313727
4.975,IMU0,-0.75048828125,1.68359375,0.095703125,72.3389355742297,-1272.7591036414567,122.12885154061625
4.985,IMU0,-0.67138671875,1.6982421875,0.10107421875,75.56022408963585,-1265.546218487395,122.96918767507003
4.995,IMU0,-0.71533203125,1.72412109375,0.12060546875,75.91036414565826,-1261.0644257703082,122.89915966386555
5.005,IMU0,-0.66796875,1.732421875,0.041015625,75.70028011204482,-1257.9831932773109,121.00840336134455
5.015,IMU0,-0.6533203125,1.73974609375,0.10693359375,76.9607843137255,-1256.372549019608,122.40896358543418
5.025,IMU0,-0.66259765625,1.75732421875,0.11962890625,77.52100840336135,-1261.624649859944,121.28851540616247
5.035,IMU0,-0.66748046875,1.79248046875,0.01953125,74.92997198879551,-1261.4145658263305,126.75070028011206
5.045,IMU0,-0.73095703125,1.77294921875,0.134765625,72.40896358543418,-1267.3669467787115,127.10084033613445
5.055,IMU0,-0.75537109375,1.78125,-0.05126953125,73.24929971988796,-1271.358543417367,131.79271708683473
5.065,IMU0,-0.876953125,1.8623046875,-0.23095703125,75.70028011204482,-1268.4173669467787,130.18207282913167
5.075,IMU0,-0.64453125,1.83642578125,0.03515625,82.91316526610645,-1271.4285714285716,125.77030812324931
5.085,IMU0,-0.8251953125,1.87744140625,-0.15625,81.30252100840336,-1273.389355742297,131.72268907563026
5.095,IMU0,-0.9541015625,1.888671875,-0.36572265625,82.703081232493,-1264.3557422969188,124.92997198879553
5.105,IMU0,-0.716796875,1.78466796875,-0.2265625,92.01680672268908,-1266.6666666666667,123.03921568627452
5.115,IMU0,-0.9482421875,1.8876953125,-0.20703125,90.54621848739497,-1266.9467787114847,126.68067226890757
5.125,IMU0,-0.8740234375,1.92578125,-0.36328125,93.4873949579832,-1265.266106442577,119.18767507002802
5.135,IMU0,-0.8671875,1.84912109375,-0.1689453125,98.109243697479,-1261.624649859944,126.33053221288516
5.145,IMU0,-0.97607421875,1.84814453125,-0.23876953125,94.95798319327731,-1258.4033613445379,127.17086834733894
5.155,IMU0,-0.94189453125,1.8134765625,-0.2197265625,97.54901960784314,-1253.4313725490197,131.51260504201682
5.165,IMU0,-0.97998046875,1.861328125,-0.14794921875,98.17927170868347,-1250.420168067227,135.50420168067228
5.175,IMU0,-0.96435546875,1.87109375,-0.1318359375,99.92997198879553,-1245.8683473389356,139.42577030812325
5.185,IMU0,-0.9208984375,1.87109375,-0.01318359375,100.56022408963585,-1244.467787114846,143.8375350140056
5.195,IMU0,-0.96240234375,1.86328125,-0.04296875,98.4593837535014,-1241.8067226890757,150.28011204481794
5.205,IMU0,-0.87744140625,1.8427734375,-0.0185546875,100.28011204481793,-1241.3865546218487,152.52100840336135
5.215,IMU0,-0.86376953125,1.83935546875,-0.138671875,104.27170868347339,-1237.18487394958,156.44257703081234
5.225,IMU0,-0.79150390625,1.8505859375,-0.1591796875,108.82352941176471,-1240.3361344537816,155.46218487394958
5.235,IMU0,-0.84228515625,1.80859375,-0.13525390625,111.1344537815126,-1245.3781512605042,153.99159663865547
5.245,IMU0,-0.7763671875,1.77783203125,-0.1787109375,111.9747899159664,-1253.1512605042017,150.49019607843138
5.255,IMU0,-0.802734375,1.7607421875,-0.18212890625,111.20448179271709,-1263.5854341736695,150.4201680672269
5.265,IMU0,-0.86279296875,1.76611328125,-0.26904296875,108.12324929971989,-1274.2997198879552,150.3501400560224
5.275,IMU0,-0.76953125,1.73095703125,-0.1884765625,109.17366946778712,-1283.8935574229693,149.15966386554624
5.285,IMU0,-0.8427734375,1.71826171875,-0.123046875,105.60224089635855,-1295.5182072829132,154.41176470588235
5.295,IMU0,-0.95458984375,1.7353515625,-0.228515625,101.40056022408965,-1306.8627450980393,157.7731092436975
5.305,IMU0,-0.892578125,1.72607421875,-0.2265625,103.22128851540617,-1316.1764705882354,160.50420168067228
5.315,IMU0,-0.9169921875,1.71142578125,-0.1083984375,104.97198879551821,-1322.689075630252,165.19607843137257
5.325,IMU0,-0.9296875,1.71337890625,-0.12255859375,104.13165266106444,-1327.0308123249301,167.43697478991598
5.335,IMU0,-0.89990234375,1.6884765625,-0.083984375,106.51260504201682,-1329.7619047619048,169.46778711484595
5.345,IMU0,-0.9404296875,1.67236328125,-0.0634765625,108.82352941176471,-1332.6330532212885,170.09803921568627
5.355,IMU0,-0.9052734375,1.69384765625,-0.12109375,109.66386554621849,-1335.2941176470588,170.0280112044818
5.365,IMU0,-0.859375,1.669921875,-0.0390625,113.58543417366947,-1337.8151260504203,168.1372549019608
5.375,IMU0,-0.90673828125,1.62841796875,-0.08203125,113.65546218487395,-1340.266106442577,167.15686274509804
5.385,IMU0,-0.91748046875,1.650390625,-0.14453125,115.47619047619048,-1341.8767507002801,163.16526610644257
5.395,IMU0,-0.86328125,1.60302734375,-0.01318359375,116.10644257703082,-1343.3473389355743,161.27450980392157
5.405,IMU0,-0.88232421875,1.58447265625,-0.068359375,114.28571428571429,-1345.0980392156864,160.0140056022409
5.415,IMU0,-0.9052734375,1.56201171875,-0.0400390625,112.6750700280112,-1348.389355742297,158.82352941176472
5.425,IMU0,-0.90673828125,1.544921875,0.0185546875,110.78431372549021,-1351.4705882352941,159.59383753501402
5.435,IMU0,-0.98486328125,1.57275390625,-0.03369140625,107.42296918767508,-1348.249299719888,161.27450980392157
5.445,IMU0,-0.92041015625,1.55419921875,-0.0361328125,107.56302521008404,-1343.6274509803923,160.43417366946778
5.455,IMU0,-0.8935546875,1.51904296875,0.056640625,108.82352941176471,-1338.515406162465,161.2044817927171
5.465,IMU0,-0.966796875,1.50341796875,0.03173828125,107.21288515406162,-1332.4929971988797,161.9747899159664
5.475,IMU0,-0.87841796875,1.494140625,0.0400390625,108.40336134453781,-1324.4397759103642,159.80392156862746
5.485,IMU0,-0.8984375,1.478515625,0.08056640625,107.84313725490196,-1317.5070028011205,161.41456582633054
5.495,IMU0,-0.88232421875,1.458984375,0.03125,107.3529411764706,-1312.2549019607843,158.68347338935575
5.505,IMU0,-0.833984375,1.4384765625,0.041015625,109.03361344537815,-1304.06162464986,156.65266106442579
5.515,IMU0,-0.8916015625,1.42724609375,0.05078125,108.4733893557423,-1296.918767507003,155.67226890756302
5.525,IMU0,-0.833984375,1.4072265625,0.01220703125,107.07282913165267,-1289.6358543417368,150.7703081232493
5.535,IMU0,-0.8291015625,1.3876953125,0.01904296875,106.86274509803923,-1281.1624649859943,149.78991596638656
5.545,IMU0,-0.8759765625,1.3740234375,0.00927734375,104.34173669467788,-1275.7703081232494,148.3893557422969
5.555,IMU0,-0.77685546875,1.35595703125,0.03076171875,103.43137254901961,-1270.0280112044818,145.51820728291318
5.565,IMU0,-0.8583984375,1.349609375,0.03564453125,101.05042016806723,-1265.546218487395,148.59943977591038
5.575,IMU0,-0.82470703125,1.3330078125,0.0302734375,98.66946778711485,-1263.7254901960785,147.19887955182074
5.585,IMU0,-0.8427734375,1.306640625,0.072265625,96.91876750700281,-1257.9131652661065,149.08963585434174
5.595,IMU0,-0.8056640625,1.30224609375,0.025390625,95.44817927170868,-1256.4425770308123,149.7198879551821
5.605,IMU0,-0.8251953125,1.2978515625,0.0693359375,96.77871148459384,-1255.3921568627452,149.7198879551821
5.615,IMU0,-0.7841796875,1.291015625,0.0322265625,95.44817927170868,-1258.1232492997199,149.01960784313727
5.625,IMU0,-0.78955078125,1.2763671875,0.05810546875,97.05882352941177,-1260.4341736694678,148.3893557422969
5.635,IMU0,-0.77783203125,1.26318359375,0.0517578125,96.28851540616247,-1264.6358543417368,146.84873949579833
5.645,IMU0,-0.78857421875,1.25390625,0.04248046875,96.28851540616247,-1269.3977591036414,145.23809523809524
5.655,IMU0,-0.7666015625,1.23779296875,0.09228515625,96.28851540616247,-1273.4593837535015,143.34733893557424
5.665,IMU0,-0.8330078125,1.24267578125,0.03564453125,93.76750700280112,-1276.1904761904761,142.85714285714286
5.675,IMU0,-0.7802734375,1.22265625,0.06689453125,94.18767507002802,-1279.4117647058824,139.2156862745098
5.685,IMU0,-0.79833984375,1.2138671875,0.0908203125,92.64705882352942,-1281.7226890756303,139.84593837535016
5.695,IMU0,-0.83740234375,1.20703125,0.09912109375,90.89635854341738,-1284.8039215686274,138.72549019607843
5.705,IMU0,-0.78125,1.2158203125,0.119140625,89.6358543417367,-1286.0644257703082,137.46498599439778
5.715,IMU0,-0.8359375,1.23046875,0.14501953125,88.93557422969188,-1286.1344537815128,138.72549019607843
5.725,IMU0,-0.81494140625,1.22509765625,0.1357421875,87.18487394957984,-1284.1736694677872,136.76470588235296
5.735,IMU0,-0.81494140625,1.21533203125,0.13623046875,88.23529411764706,-1280.2521008403362,136.1344537815126
5.745,IMU0,-0.80419921875,1.21240234375,0.1552734375,88.79551820728291,-1273.7394957983195,134.1736694677871
5.755,IMU0,-0.802734375,1.21142578125,0.1298828125,89.35574229691878,-1264.8459383753502,132.0028011204482
5.765,IMU0,-0.76513671875,1.193359375,0.15283203125,91.1764705882353,-1256.09243697479,128.71148459383755
5.775,IMU0,-0.78125,1.193359375,0.12451171875,90.68627450980392,-1245.5182072829132,126.40056022408965
5.785,IMU0,-0.783203125,1.1875,0.11328125,91.73669467787116,-1233.1232492997199,122.26890756302521
5.795,IMU0,-0.7431640625,1.17333984375,0.1103515625,91.59663865546219,-1220.6582633053222,118.55742296918768
5.805,IMU0,-0.78173828125,1.1669921875,0.11474609375,90.82633053221289,-1207.0028011204483,116.80672268907564
5.815,IMU0,-0.76513671875,1.1513671875,0.09716796875,88.93557422969188,-1194.2577030812326,113.44537815126051
5.825,IMU0,-0.78564453125,1.1630859375,0.06982421875,88.23529411764706,-1178.7114845938377,112.60504201680673
5.835,IMU0,-0.78515625,1.138671875,0.095703125,87.60504201680672,-1164.4257703081232,110.36414565826331
5.845,IMU0,-0.79052734375,1.13134765625,0.064453125,85.64425770308124,-1148.1792717086835,109.94397759103641
5.855,IMU0,-0.8125,1.12451171875,0.06494140625,85.64425770308124,-1131.5826330532213,109.38375350140056
5.865,IMU0,-0.80126953125,1.12744140625,0.05419921875,84.52380952380953,-1113.7254901960785,108.19327731092437
5.875,IMU0,-0.8134765625,1.12109375,0.03857421875,84.73389355742297,-1092.857142857143,108.4733893557423
5.885,IMU0,-0.7705078125,1.107421875,0.03955078125,85.15406162464987,-1074.0196078431372,107.00280112044818
5.895,IMU0,-0.79150390625,1.11181640625,0.01904296875,85.22408963585434,-1053.7114845938377,108.19327731092437
5.905,IMU0,-0.77001953125,1.10498046875,0.00927734375,86.06442577030813,-1035.8543417366948,106.72268907563026
5.915,IMU0,-0.76416015625,1.10791015625,-0.03955078125,86.27450980392157,-1017.296918767507,107.21288515406162
5.925,IMU0,-0.7431640625,1.0869140625,-0.01904296875,87.53501400560225,-1000.7002801120449,106.1624649859944
5.935,IMU0,-0.70556640625,1.0771484375,-0.03662109375,86.76470588235294,-987.4649859943978,106.23249299719889
5.945,IMU0,-0.7041015625,1.07470703125,-0.08935546875,85.0140056022409,-970.0980392156863,107.14285714285715
5.955,IMU0,-0.71142578125,1.06103515625,-0.0888671875,84.52380952380953,-965.4761904761905,108.82352941176471
5.965,IMU0,-0.70068359375,1.0576171875,-0.09423828125,82.84313725490196,-962.2549019607843,109.73389355742297
5.975,IMU0,-0.6962890625,1.0419921875,-0.1240234375,80.95238095238095,-960.0140056022409,111.62464985994399
5.985,IMU0,-0.7021484375,1.046875,-0.10498046875,79.97198879551821,-960.5042016806723,113.8655462184874
5.995,IMU0,-0.71875,1.03759765625,-0.15283203125,77.6610644257703,-960.0840336134454,115.96638655462185
6.005,IMU0,-0.703125,1.03564453125,-0.169921875,77.31092436974791,-957.5630252100841,117.29691876750701
6.015,IMU0,-0.69482421875,1.02880859375,-0.15625,76.40056022408965,-955.1820728291317,119.32773109243698
6.025,IMU0,-0.697265625,1.0322265625,-0.1884765625,75.35014005602241,-954.2016806722689,121.1484593837535
6.035,IMU0,-0.7021484375,1.02490234375,-0.19677734375,75.4201680672269,-953.5714285714287,122.82913165266108
6.045,IMU0,-0.6796875,1.01611328125,-0.181640625,75.0,-952.8711484593838,124.01960784313727
6.055,IMU0,-0.6845703125,1.01025390625,-0.22607421875,74.08963585434174,-953.0112044817928,125.70028011204482
6.065,IMU0,-0.6767578125,1.0078125,-0.22509765625,74.71988795518207,-953.0812324929973,126.26050420168067
6.075,IMU0,-0.66845703125,1.0068359375,-0.2255859375,74.50980392156863,-953.5014005602242,127.52100840336135
6.085,IMU0,-0.68994140625,0.99755859375,-0.248046875,74.36974789915966,-954.8319327731093,128.57142857142858
6.095,IMU0,-0.654296875,0.98828125,-0.265625,74.57983193277312,-954.9019607843138,128.57142857142858
6.105,IMU0,-0.67138671875,0.98974609375,-0.27392578125,74.78991596638656,-954.6218487394958,129.6918767507003
6.115,IMU0,-0.6640625,0.97998046875,-0.2861328125,74.43977591036415,-956.9327731092437,130.0420168067227
6.125,IMU0,-0.6572265625,0.97509765625,-0.30078125,74.36974789915966,-959.6638655462185,130.60224089635855
6.135,IMU0,-0.68212890625,0.97265625,-0.31103515625,74.15966386554622,-961.2745098039217,131.72268907563026
6.145,IMU0,-0.67431640625,0.97314453125,-0.306640625,74.15966386554622,-964.2857142857143,131.72268907563026
6.155,IMU0,-0.6640625,0.96142578125,-0.3095703125,73.4593837535014,-967.296918767507,132.98319327731093
6.165,IMU0,-0.6904296875,0.9599609375,-0.33251953125,72.6890756302521,-970.3781512605043,133.8935574229692
6.175,IMU0,-0.6884765625,0.95751953125,-0.326171875,72.75910364145659,-973.9495798319329,134.87394957983193
6.185,IMU0,-0.685546875,0.9501953125,-0.3359375,72.47899159663866,-977.5210084033614,136.34453781512605
6.195,IMU0,-0.7021484375,0.95166015625,-0.3359375,72.75910364145659,-979.8319327731093,137.60504201680672
6.205,IMU0,-0.6962890625,0.95166015625,-0.33837890625,73.03921568627452,-983.12324929972,138.72549019607843
6.215,IMU0,-0.70361328125,0.94921875,-0.3447265625,73.4593837535014,-986.0644257703082,139.84593837535016
6.225,IMU0,-0.70654296875,0.9443359375,-0.32958984375,74.50980392156863,-988.2352941176471,140.3361344537815
6.235,IMU0,-0.71484375,0.943359375,-0.34423828125,74.50980392156863,-990.0560224089636,141.5966386554622
6.245,IMU0,-0.71240234375,0.94482421875,-0.32666015625,75.84033613445378,-992.9971988795519,142.08683473389357
6.255,IMU0,-0.70654296875,0.93896484375,-0.33935546875,76.26050420168067,-996.4285714285714,142.92717086834733
6.265,IMU0,-0.72216796875,0.939453125,-0.35205078125,77.03081232492998,-998.7394957983194,143.4173669467787
6.275,IMU0,-0.72119140625,0.9326171875,-0.33935546875,78.01120448179272,-1001.2605042016808,143.4873949579832
6.285,IMU0,-0.71923828125,0.9326171875,-0.353515625,78.15126050420169,-1004.2016806722689,143.4873949579832
6.295,IMU0,-0.73095703125,0.93212890625,-0.3603515625,79.41176470588236,-1006.232492997199,143.69747899159665
6.305,IMU0,-0.74072265625,0.92919921875,-0.37060546875,80.46218487394958,-1012.5350140056023,143.8375350140056
6.315,IMU0,-0.76025390625,0.923828125,-0.36083984375,81.9327731092437,-1014.7058823529412,144.187675070028
6.325,IMU0,-0.7666015625,0.92529296875,-0.359375,81.9327731092437,-1016.8767507002801,143.9075630252101
6.335,IMU0,-0.783203125,0.927734375,-0.36083984375,82.77310924369748,-1019.6778711484594,144.11764705882354
6.345,IMU0,-0.7646484375,0.9111328125,-0.35009765625,83.61344537815127,-1023.6694677871149,144.187675070028
6.355,IMU0,-0.79833984375,0.91845703125,-0.3623046875,83.75350140056022,-1023.5994397759104,145.23809523809524
6.365,IMU0,-0.80859375,0.92333984375,-0.34814453125,84.87394957983193,-1025.0,145.30812324929974
6.375,IMU0,-0.79833984375,0.9111328125,-0.35986328125,85.36414565826331,-1025.3501400560224,145.44817927170868
6.385,IMU0,-0.8203125,0.91796875,-0.349609375,86.69467787114846,-1025.0,146.1484593837535
6.395,IMU0,-0.818359375,0.9150390625,-0.34130859375,87.53501400560225,-1025.560224089636,146.1484593837535
6.405,IMU0,-0.83056640625,0.92431640625,-0.3701171875,88.72549019607844,-1026.3305322128851,146.218487394958
6.415,IMU0,-0.82373046875,0.91455078125,-0.33984375,90.68627450980392,-1026.2605042016808,146.1484593837535
6.425,IMU0,-0.8544921875,0.9169921875,-0.3310546875,91.31652661064426,-1027.731092436975,146.00840336134453
6.435,IMU0,-0.85107421875,0.91015625,-0.35205078125,92.3669467787115,-1028.501400560224,145.30812324929974
6.445,IMU0,-0.85986328125,0.916015625,-0.3515625,93.41736694677871,-1026.7507002801121,145.09803921568627
6.455,IMU0,-0.8701171875,0.9072265625,-0.3388671875,94.11764705882354,-1026.8207282913165,144.6778711484594
6.465,IMU0,-0.8603515625,0.90380859375,-0.35693359375,94.88795518207283,-1028.2913165266107,144.32773109243698
6.475,IMU0,-0.880859375,0.90966796875,-0.3388671875,96.1484593837535,-1028.7114845938377,144.60784313725492
6.485,IMU0,-0.88916015625,0.90478515625,-0.34716796875,96.5686274509804,-1030.952380952381,144.04761904761907
6.495,IMU0,-0.91357421875,0.91259765625,-0.328125,97.6890756302521,-1033.3333333333335,144.32773109243698
6.505,IMU0,-0.91943359375,0.90380859375,-0.31201171875,98.03921568627452,-1036.904761904762,143.8375350140056
6.515,IMU0,-0.93115234375,0.89599609375,-0.3349609375,98.24929971988796,-1038.1652661064427,143.55742296918768
6.525,IMU0,-0.93408203125,0.900390625,-0.3037109375,99.36974789915966,-1039.0056022408965,143.34733893557424
6.535,IMU0,-0.95068359375,0.89697265625,-0.30322265625,99.36974789915966,-1041.1064425770307,143.34733893557424
6.545,IMU0,-0.95556640625,0.90380859375,-0.28466796875,100.0,-1043.137254901961,142.92717086834733
6.555,IMU0,-0.953125,0.904296875,-0.2587890625,100.63025210084034,-1047.1988795518207,142.85714285714286
6.565,IMU0,-0.98291015625,0.90478515625,-0.24072265625,101.12044817927172,-1052.5210084033613,142.57703081232495
6.575,IMU0,-0.9775390625,0.89990234375,-0.23388671875,101.05042016806723,-1057.6330532212885,141.87675070028013
6.585,IMU0,-0.986328125,0.89794921875,-0.21435546875,101.26050420168067,-1061.2745098039215,141.52661064425772
6.595,IMU0,-0.99755859375,0.8955078125,-0.171875,101.33053221288516,-1066.3165266106444,140.54621848739495
6.605,IMU0,-1.0068359375,0.8857421875,-0.1591796875,100.35014005602241,-1073.249299719888,139.00560224089637
6.615,IMU0,-1.0146484375,0.8896484375,-0.1181640625,100.49019607843138,-1079.6918767507004,138.37535014005604
6.625,IMU0,-1.02294921875,0.8876953125,-0.06884765625,99.2296918767507,-1088.0252100840337,136.69467787114846
6.635,IMU0,-1.029296875,0.88232421875,-0.06689453125,97.6890756302521,-1093.3473389355743,134.87394957983193
6.645,IMU0,-1.01953125,0.88232421875,-0.0068359375,97.26890756302521,-1096.498599439776,132.703081232493
6.655,IMU0,-1.04541015625,0.87548828125,0.02587890625,95.23809523809524,-1101.2605042016808,130.74229691876752
6.665,IMU0,-1.015625,0.87255859375,0.09130859375,94.04761904761905,-1103.641456582633,127.80112044817928
6.675,IMU0,-1.0205078125,0.86865234375,0.111328125,91.24649859943978,-1105.3921568627452,122.40896358543418
6.685,IMU0,-1.01220703125,0.86083984375,0.111328125,90.75630252100841,-1102.450980392157,118.69747899159664
6.695,IMU0,-1.00634765625,0.86181640625,0.1279296875,90.33613445378151,-1092.3669467787115,114.6358543417367
6.705,IMU0,-0.9951171875,0.85498046875,0.13330078125,90.12605042016807,-1077.5210084033613,109.593837535014
6.715,IMU0,-0.97314453125,0.8564453125,0.1123046875,90.33613445378151,-1060.15406162465,104.41176470588236
6.725,IMU0,-0.95654296875,0.8447265625,0.11572265625,90.68627450980392,-1038.235294117647,98.59943977591037
6.735,IMU0,-0.943359375,0.8505859375,0.10595703125,90.75630252100841,-1015.2661064425771,92.92717086834735
6.745,IMU0,-0.94189453125,0.84375,0.0947265625,90.61624649859944,-991.3865546218487,87.25490196078432
6.755,IMU0,-0.935546875,0.84423828125,0.08251953125,90.12605042016807,-966.6666666666667,82.07282913165267
6.765,IMU0,-0.9228515625,0.83154296875,0.06591796875,89.77591036414566,-944.047619047619,77.38095238095238
6.775,IMU0,-0.91943359375,0.8271484375,0.0498046875,88.72549019607844,-919.467787114846,73.59943977591037
6.785,IMU0,-0.93994140625,0.81591796875,0.044921875,87.74509803921569,-896.2885154061626,70.23809523809524
6.795,IMU0,-0.9345703125,0.8232421875,0.02978515625,86.41456582633053,-873.0392156862746,67.71708683473389
6.805,IMU0,-0.94580078125,0.810546875,0.0283203125,85.4341736694678,-851.6106442577031,66.03641456582633
6.815,IMU0,-0.9462890625,0.80908203125,0.0166015625,83.8935574229692,-830.1120448179272,64.70588235294117
6.825,IMU0,-0.94970703125,0.7998046875,0.00048828125,82.98319327731093,-808.4733893557424,64.70588235294117
6.835,IMU0,-0.95751953125,0.7978515625,0.0048828125,82.42296918767508,-788.5854341736695,64.42577030812325
6.845,IMU0,-0.95751953125,0.79150390625,-0.01171875,81.37254901960785,-769.8879551820729,65.54621848739497
6.855,IMU0,-0.955078125,0.79248046875,-0.01220703125,81.1624649859944,-751.750700280112,66.38655462184875
6.865,IMU0,-0.939453125,0.78564453125,-0.01953125,80.74229691876751,-736.8347338935574,67.78711484593838
6.875,IMU0,-0.921875,0.78173828125,-0.0380859375,80.60224089635855,-723.0392156862746,69.53781512605042
6.885,IMU0,-0.91064453125,0.7783203125,-0.03759765625,80.67226890756302,-709.9439775910364,71.28851540616247
6.895,IMU0,-0.892578125,0.7802734375,-0.060546875,80.32212885154063,-699.5798319327731,72.82913165266106
6.905,IMU0,-0.8857421875,0.77783203125,-0.07275390625,80.46218487394958,-690.8263305322129,74.85994397759104
6.915,IMU0,-0.84619140625,0.7763671875,-0.076171875,80.53221288515407,-686.1344537815127,76.26050420168067
6.925,IMU0,-0.8271484375,0.7705078125,-0.09521484375,79.97198879551821,-683.2633053221289,78.64145658263305
6.935,IMU0,-0.81396484375,0.76171875,-0.107421875,79.76190476190476,-682.703081232493,80.3921568627451
6.945,IMU0,-0.7958984375,0.767578125,-0.1357421875,79.06162464985995,-682.5630252100841,82.00280112044818
6.955,IMU0,-0.794921875,0.76318359375,-0.14501953125,78.64145658263305,-682.3529411764706,84.17366946778712
6.965,IMU0,-0.763671875,0.76025390625,-0.16748046875,78.01120448179272,-685.5042016806723,85.08403361344538
6.975,IMU0,-0.74755859375,0.75341796875,-0.1884765625,77.38095238095238,-689.9859943977591,87.25490196078432
6.985,IMU0,-0.74169921875,0.74609375,-0.19580078125,76.61064425770309,-693.6974789915967,88.51540616246498
6.995,IMU0,-0.7314453125,0.7421875,-0.2421875,75.49019607843138,-697.1988795518207,89.98599439775911
7.005,IMU0,-0.7333984375,0.7392578125,-0.2392578125,75.84033613445378,-700.8403361344538,91.31652661064426
7.015,IMU0,-0.7236328125,0.7421875,-0.27685546875,74.64985994397759,-704.0616246498599,92.57703081232494
7.025,IMU0,-0.724609375,0.72607421875,-0.2919921875,74.50980392156863,-708.6834733893558,93.4873949579832
7.035,IMU0,-0.724609375,0.7236328125,-0.33740234375,73.31932773109244,-717.8571428571429,96.07843137254902
7.045,IMU0,-0.708984375,0.72119140625,-0.32470703125,73.8795518207283,-721.7787114845938,96.84873949579833
7.055,IMU0,-0.71728515625,0.71826171875,-0.3486328125,72.82913165266106,-726.4705882352941,98.73949579831933
7.065,IMU0,-0.724609375,0.716796875,-0.37548828125,72.82913165266106,-730.8823529411765,99.92997198879553
7.075,IMU0,-0.70361328125,0.71240234375,-0.3603515625,73.17927170868347,-734.453781512605,100.70028011204482
7.085,IMU0,-0.7353515625,0.712890625,-0.39013671875,72.75910364145659,-738.3053221288516,102.94117647058825
7.095,IMU0,-0.7392578125,0.70654296875,-0.39306640625,73.03921568627452,-741.0364145658264,103.36134453781513
7.105,IMU0,-0.7294921875,0.70556640625,-0.41552734375,72.96918767507003,-742.1568627450981,104.55182072829132
7.115,IMU0,-0.74365234375,0.70166015625,-0.427734375,73.24929971988796,-743.2773109243698,105.74229691876751
7.125,IMU0,-0.73046875,0.7060546875,-0.4248046875,73.66946778711485,-743.9775910364147,106.65266106442577
7.135,IMU0,-0.75,0.70458984375,-0.4423828125,73.80952380952381,-744.5378151260504,108.05322128851542
7.145,IMU0,-0.75146484375,0.70263671875,-0.4541015625,74.43977591036415,-745.1680672268908,108.54341736694678
7.155,IMU0,-0.75390625,0.69921875,-0.455078125,74.92997198879551,-745.3081232492998,110.0140056022409
7.165,IMU0,-0.75927734375,0.70166015625,-0.4716796875,75.35014005602241,-747.2689075630252,110.99439775910365
7.175,IMU0,-0.74560546875,0.70068359375,-0.48779296875,76.19047619047619,-748.6694677871149,112.11484593837535
7.185,IMU0,-0.755859375,0.689453125,-0.49560546875,76.9607843137255,-748.3193277310925,113.02521008403362
7.195,IMU0,-0.75634765625,0.69970703125,-0.5166015625,77.52100840336135,-748.109243697479,113.93557422969188
7.205,IMU0,-0.75244140625,0.69921875,-0.5263671875,78.64145658263305,-748.529411764706,114.28571428571429
7.215,IMU0,-0.77001953125,0.69482421875,-0.53515625,79.55182072829132,-748.9495798319329,115.406162464986
7.225,IMU0,-0.78564453125,0.69482421875,-0.56005859375,80.11204481792717,-751.4705882352941,116.03641456582633
7.235,IMU0,-0.77490234375,0.6953125,-0.56591796875,81.23249299719889,-755.8123249299721,116.80672268907564
7.245,IMU0,-0.79345703125,0.68701171875,-0.58203125,81.79271708683474,-760.5742296918768,117.7170868347339
7.255,IMU0,-0.81103515625,0.69482421875,-0.60498046875,82.3529411764706,-766.3165266106442,118.9075630252101
7.265,IMU0,-0.81494140625,0.68603515625,-0.599609375,83.4733893557423,-773.109243697479,120.0280112044818
7.275,IMU0,-0.83154296875,0.68994140625,-0.62060546875,83.75350140056022,-781.1624649859945,121.63865546218489
7.285,IMU0,-0.85595703125,0.69189453125,-0.634765625,85.0140056022409,-789.2156862745098,123.03921568627452
7.295,IMU0,-0.8662109375,0.6953125,-0.62109375,85.99439775910365,-797.4789915966387,124.50980392156863
7.305,IMU0,-0.8876953125,0.69189453125,-0.6357421875,86.62464985994399,-805.952380952381,126.33053221288516
7.315,IMU0,-0.8818359375,0.69287109375,-0.646484375,88.16526610644259,-815.8963585434174,127.80112044817928
7.325,IMU0,-0.9189453125,0.69677734375,-0.63037109375,90.12605042016807,-823.6694677871149,130.3221288515406
7.335,IMU0,-0.9228515625,0.6953125,-0.63330078125,91.31652661064426,-832.6330532212886,131.5826330532213
7.345,IMU0,-0.9375,0.703125,-0.63525390625,93.55742296918768,-840.4761904761905,133.19327731092437
7.355,IMU0,-0.96142578125,0.701171875,-0.6259765625,96.07843137254902,-846.7086834733894,134.2436974789916
7.365,IMU0,-0.97314453125,0.712890625,-0.63623046875,97.82913165266108,-853.2913165266107,135.57422969187675
7.375,IMU0,-0.998046875,0.70947265625,-0.615234375,100.63025210084034,-859.5238095238095,136.34453781512605
7.385,IMU0,-1.0029296875,0.71630859375,-0.62890625,102.10084033613445,-865.4761904761905,136.9747899159664
7.395,IMU0,-1.02294921875,0.7216796875,-0.61669921875,107.49299719887955,-875.9803921568628,138.37535014005604
7.405,IMU0,-1.06103515625,0.73046875,-0.62890625,109.52380952380953,-881.3725490196078,139.07563025210084
7.415,IMU0,-1.06640625,0.72412109375,-0.6015625,112.6750700280112,-884.593837535014,139.00560224089637
7.425,IMU0,-1.083984375,0.7314453125,-0.61376953125,114.2156862745098,-889.7058823529412,139.49579831932775
7.435,IMU0,-1.1318359375,0.732421875,-0.6259765625,116.9467787114846,-894.2577030812325,139.2156862745098
7.445,IMU0,-1.12109375,0.73779296875,-0.6015625,119.25770308123249,-895.6582633053222,139.07563025210084
7.455,IMU0,-1.16064453125,0.74072265625,-0.5986328125,121.28851540616247,-898.7394957983194,139.49579831932775
7.465,IMU0,-1.171875,0.74169921875,-0.5869140625,123.24929971988796,-902.9411764705883,139.14565826330534
7.475,IMU0,-1.20947265625,0.748046875,-0.587890625,125.21008403361346,-907.843137254902,139.42577030812325
7.485,IMU0,-1.2255859375,0.75048828125,-0.5615234375,127.52100840336135,-912.1848739495799,139.35574229691878
7.495,IMU0,-1.2578125,0.7578125,-0.5517578125,128.99159663865547,-917.0168067226891,139.2156862745098
7.505,IMU0,-1.2744140625,0.76318359375,-0.5244140625,130.88235294117646,-923.0392156862746,138.51540616246498
7.515,IMU0,-1.32080078125,0.76220703125,-0.5048828125,132.2829131652661,-932.5630252100841,138.4453781512605
7.525,IMU0,-1.32568359375,0.76513671875,-0.4638671875,133.4033613445378,-941.4565826330532,137.81512605042016
7.535,IMU0,-1.35205078125,0.76611328125,-0.4130859375,134.59383753501402,-957.0028011204482,137.88515406162466
7.545,IMU0,-1.38818359375,0.76953125,-0.35498046875,135.0140056022409,-975.5602240896359,137.60504201680672
7.555,IMU0,-1.40869140625,0.76953125,-0.28955078125,135.15406162464987,-998.1792717086835,137.2549019607843
7.565,IMU0,-1.4287109375,0.765625,-0.20849609375,134.59383753501402,-1025.2100840336134,137.04481792717087
7.575,IMU0,-1.45947265625,0.75732421875,-0.11669921875,133.1232492997199,-1053.5714285714287,135.43417366946778
7.585,IMU0,-1.4833984375,0.75341796875,-0.0146484375,130.53221288515408,-1078.5714285714287,133.1232492997199
7.595,IMU0,-1.513671875,0.75048828125,0.10546875,127.17086834733894,-1102.871148459384,129.41176470588235
7.605,IMU0,-1.5595703125,0.740234375,0.20458984375,123.38935574229693,-1123.8795518207282,124.2296918767507
7.615,IMU0,-1.56103515625,0.72802734375,0.2890625,119.39775910364146,-1135.014005602241,119.53781512605043
7.625,IMU0,-1.5751953125,0.7158203125,0.322265625,115.89635854341738,-1132.6330532212885,113.30532212885154
7.635,IMU0,-1.55419921875,0.720703125,0.30419921875,113.37535014005603,-1106.09243697479,104.76190476190477
7.645,IMU0,-1.5361328125,0.7236328125,0.2783203125,112.6750700280112,-1056.6526610644257,93.27731092436976
7.655,IMU0,-1.482421875,0.72314453125,0.26171875,112.95518207282913,-992.2268907563025,81.23249299719889
7.665,IMU0,-1.42578125,0.73193359375,0.236328125,114.35574229691878,-918.6274509803922,69.32773109243698
7.675,IMU0,-1.37890625,0.73583984375,0.21142578125,116.5266106442577,-844.6778711484594,57.983193277310924
7.685,IMU0,-1.3251953125,0.7373046875,0.181640625,118.13725490196079,-773.1792717086835,47.82913165266107
7.695,IMU0,-1.31640625,0.7294921875,0.126953125,119.6078431372549,-704.5518207282913,39.49579831932773
7.705,IMU0,-1.26513671875,0.7275390625,0.10888671875,120.44817927170868,-641.2464985994399,32.212885154061624
7.715,IMU0,-1.25341796875,0.71875,0.0673828125,120.0280112044818,-585.3641456582633,28.0812324929972
7.725,IMU0,-1.2421875,0.70703125,0.0263671875,119.04761904761905,-538.515406162465,25.630252100840337
7.735,IMU0,-1.2236328125,0.693359375,0.0087890625,117.22689075630252,-501.1904761904762,25.28011204481793
7.745,IMU0,-1.22509765625,0.66845703125,-0.01611328125,113.72549019607844,-474.5798319327731,28.151260504201684
7.755,IMU0,-1.232421875,0.65478515625,-0.07568359375,109.593837535014,-459.5238095238095,31.862745098039216
7.765,IMU0,-1.2236328125,0.6259765625,-0.09619140625,99.36974789915966,-450.5602240896359,44.537815126050425
7.775,IMU0,-1.21142578125,0.61328125,-0.12060546875,94.18767507002802,-453.5714285714286,51.75070028011205
7.785,IMU0,-1.19580078125,0.603515625,-0.1513671875,89.07563025210085,-458.33333333333337,59.523809523809526
7.795,IMU0,-1.16455078125,0.60009765625,-0.15625,84.73389355742297,-463.515406162465,66.80672268907563
7.805,IMU0,-1.12451171875,0.59716796875,-0.18359375,80.74229691876751,-468.4173669467787,74.08963585434174
7.815,IMU0,-1.08935546875,0.603515625,-0.2109375,77.94117647058823,-471.07843137254906,80.88235294117648
7.825,IMU0,-1.02978515625,0.60400390625,-0.21240234375,75.98039215686275,-472.54901960784315,87.18487394957984
7.835,IMU0,-0.9736328125,0.60791015625,-0.220703125,74.92997198879551,-475.28011204481794,92.71708683473389
7.845,IMU0,-0.91162109375,0.611328125,-0.2412109375,73.94957983193278,-475.21008403361344,97.54901960784314
7.855,IMU0,-0.83642578125,0.61279296875,-0.26220703125,74.01960784313725,-474.85994397759106,101.5406162464986
7.865,IMU0,-0.78564453125,0.61962890625,-0.2958984375,75.07002801120449,-476.3305322128852,105.0420168067227
7.875,IMU0,-0.7109375,0.623046875,-0.33056640625,76.68067226890757,-476.40056022408965,107.07282913165267
7.885,IMU0,-0.65234375,0.6201171875,-0.3623046875,78.64145658263305,-479.6918767507003,108.8935574229692
7.895,IMU0,-0.60205078125,0.61669921875,-0.40185546875,80.74229691876751,-483.8935574229692,109.593837535014
7.905,IMU0,-0.56201171875,0.61767578125,-0.447265625,82.98319327731093,-489.7058823529412,109.80392156862746
7.915,IMU0,-0.529296875,0.6123046875,-0.47802734375,84.66386554621849,-497.4089635854342,108.75350140056022
7.925,IMU0,-0.52099609375,0.59765625,-0.53515625,85.29411764705883,-507.98319327731093,107.14285714285715
7.935,IMU0,-0.5078125,0.5859375,-0.57861328125,85.57422969187675,-521.8487394957983,105.18207282913166
7.945,IMU0,-0.52197265625,0.572265625,-0.6123046875,84.593837535014,-542.8571428571429,103.15126050420169
7.955,IMU0,-0.552734375,0.5537109375,-0.671875,82.77310924369748,-568.9075630252102,101.26050420168067
7.965,IMU0,-0.57275390625,0.53125,-0.7177734375,80.3921568627451,-598.249299719888,99.43977591036415
7.975,IMU0,-0.625,0.51708984375,-0.7626953125,77.24089635854342,-629.6218487394958,98.59943977591037
7.985,IMU0,-0.677734375,0.50341796875,-0.79443359375,74.15966386554622,-661.2044817927172,98.109243697479
7.995,IMU0,-0.7333984375,0.501953125,-0.81884765625,71.07843137254902,-693.2072829131653,99.01960784313727
8.005,IMU0,-0.79736328125,0.494140625,-0.81640625,68.69747899159664,-726.6806722689076,101.5406162464986
8.015,IMU0,-0.85986328125,0.49609375,-0.8056640625,66.5266106442577,-760.0840336134454,105.18207282913166
8.025,IMU0,-0.912109375,0.5009765625,-0.78759765625,65.54621848739497,-786.2044817927172,110.22408963585434
8.035,IMU0,-0.9619140625,0.517578125,-0.7373046875,66.45658263305323,-806.3725490196078,115.89635854341738
8.045,IMU0,-0.99462890625,0.52783203125,-0.68994140625,68.13725490196079,-815.7563025210085,121.5686274509804
8.055,IMU0,-1.01806640625,0.53955078125,-0.6494140625,70.7983193277311,-814.4957983193277,126.47058823529413
8.065,IMU0,-1.0224609375,0.5576171875,-0.583984375,74.64985994397759,-806.8627450980392,130.25210084033614
8.075,IMU0,-1.037109375,0.57275390625,-0.53955078125,78.22128851540617,-794.7478991596639,133.0532212885154
8.085,IMU0,-1.01171875,0.59228515625,-0.49609375,82.28291316526611,-780.5322128851541,134.87394957983193
8.095,IMU0,-0.9853515625,0.6015625,-0.4453125,86.69467787114846,-772.0588235294118,136.1344537815126
8.105,IMU0,-0.96630859375,0.60791015625,-0.451171875,90.406162464986,-764.9159663865546,136.624649859944
8.115,IMU0,-0.92919921875,0.6181640625,-0.43310546875,94.95798319327731,-754.9019607843138,136.2044817927171
8.125,IMU0,-0.87841796875,0.6337890625,-0.4541015625,102.80112044817928,-739.8459383753502,132.91316526610646
8.135,IMU0,-0.857421875,0.62744140625,-0.466796875,106.65266106442577,-734.0336134453781,130.46218487394958
8.145,IMU0,-0.83837890625,0.62451171875,-0.49462890625,109.73389355742297,-728.1512605042017,127.73109243697479
8.155,IMU0,-0.84716796875,0.62646484375,-0.5263671875,112.3249299719888,-725.7002801120449,125.28011204481793
8.165,IMU0,-0.8466796875,0.6201171875,-0.55712890625,114.6358543417367,-725.0700280112045,122.19887955182074
8.175,IMU0,-0.857421875,0.61181640625,-0.59521484375,116.24649859943978,-728.2212885154062,120.16806722689076
8.185,IMU0,-0.87451171875,0.61181640625,-0.61962890625,117.92717086834735,-736.484593837535,118.62745098039217
8.195,IMU0,-0.91357421875,0.59765625,-0.654296875,118.62745098039217,-747.1288515406163,117.85714285714286
8.205,IMU0,-0.962890625,0.59765625,-0.69970703125,119.04761904761905,-758.1232492997199,117.01680672268908
8.215,IMU0,-0.99365234375,0.5966796875,-0.6943359375,120.23809523809524,-770.7983193277312,117.08683473389357
8.225,IMU0,-1.05810546875,0.591796875,-0.724609375,120.58823529411765,-789.0756302521008,118.41736694677871
8.235,IMU0,-1.10595703125,0.59521484375,-0.73974609375,121.49859943977592,-804.9019607843138,119.81792717086836
8.245,IMU0,-1.1728515625,0.6005859375,-0.72314453125,123.24929971988796,-815.546218487395,121.63865546218489
8.255,IMU0,-1.236328125,0.6083984375,-0.72265625,124.36974789915966,-822.7591036414566,123.31932773109244
8.265,IMU0,-1.29052734375,0.6142578125,-0.7138671875,126.75070028011206,-825.280112044818,124.29971988795519
8.275,IMU0,-1.33251953125,0.62451171875,-0.6796875,128.99159663865547,-825.4201680672269,126.19047619047619
8.285,IMU0,-1.37744140625,0.64453125,-0.6591796875,131.51260504201682,-829.4817927170868,127.87114845938376
8.295,IMU0,-1.43017578125,0.6552734375,-0.61962890625,134.87394957983193,-836.7647058823529,129.62184873949582
8.305,IMU0,-1.46484375,0.66064453125,-0.6025390625,137.11484593837537,-838.0252100840337,130.3921568627451
8.315,IMU0,-1.5029296875,0.6748046875,-0.556640625,139.9859943977591,-835.9243697478992,130.0420168067227
8.325,IMU0,-1.50439453125,0.68701171875,-0.5048828125,142.85714285714286,-839.7759103641457,130.60224089635855
8.335,IMU0,-1.5546875,0.69580078125,-0.466796875,145.65826330532212,-852.7310924369748,130.67226890756302
8.345,IMU0,-1.53515625,0.69921875,-0.39794921875,148.3893557422969,-865.4761904761905,130.812324929972
8.355,IMU0,-1.55517578125,0.70361328125,-0.34716796875,149.85994397759103,-880.6022408963586,130.25210084033614
8.365,IMU0,-1.5712890625,0.71044921875,-0.28369140625,151.40056022408965,-903.3613445378152,129.06162464985994
8.375,IMU0,-1.59375,0.7021484375,-0.20947265625,152.03081232492997,-932.0028011204482,128.29131652661064
8.385,IMU0,-1.6015625,0.6982421875,-0.1142578125,150.98039215686276,-962.8851540616247,125.4201680672269
8.395,IMU0,-1.5849609375,0.68017578125,0.01416015625,149.08963585434174,-1002.03081232493,122.6890756302521
8.405,IMU0,-1.59716796875,0.666015625,0.16455078125,144.74789915966386,-1050.0,120.58823529411765
8.415,IMU0,-1.67529296875,0.65283203125,0.31689453125,138.51540616246498,-1099.6498599439776,116.59663865546219
8.425,IMU0,-1.71240234375,0.6376953125,0.44775390625,132.56302521008405,-1141.8767507002801,111.1344537815126
8.435,IMU0,-1.7734375,0.62646484375,0.49462890625,126.61064425770309,-1159.313725490196,104.76190476190477
8.445,IMU0,-1.7236328125,0.625,0.49951171875,122.26890756302521,-1144.607843137255,94.32773109243698
8.455,IMU0,-1.72900390625,0.6328125,0.490234375,119.53781512605043,-1106.7226890756303,81.72268907563026
8.465,IMU0,-1.7099609375,0.638671875,0.48193359375,118.76750700280112,-1040.686274509804,66.87675070028011
8.475,IMU0,-1.60107421875,0.65185546875,0.48291015625,119.18767507002802,-958.0532212885155,50.490196078431374
8.485,IMU0,-1.45947265625,0.67529296875,0.44775390625,124.08963585434174,-782.3529411764706,21.9187675070028
8.495,IMU0,-1.40478515625,0.68359375,0.4248046875,127.24089635854342,-703.8515406162466,10.644257703081234
8.505,IMU0,-1.375,0.689453125,0.3623046875,129.90196078431373,-630.4621848739496,0.8403361344537815
8.515,IMU0,-1.3466796875,0.70166015625,0.31103515625,132.56302521008405,-558.2633053221289,-7.212885154061625
8.525,IMU0,-1.36328125,0.6923828125,0.2734375,134.38375350140058,-492.7871148459384,-12.46498599439776
8.535,IMU0,-1.3544921875,0.6865234375,0.21435546875,134.38375350140058,-434.24369747899163,-16.666666666666668
8.545,IMU0,-1.35400390625,0.669921875,0.17529296875,134.10364145658264,-389.9859943977591,-17.43697478991597
8.555,IMU0,-1.349609375,0.650390625,0.14111328125,132.07282913165267,-354.6918767507003,-15.896358543417367
8.565,IMU0,-1.35693359375,0.62548828125,0.11572265625,129.06162464985994,-335.4341736694678,-11.204481792717088
8.575,IMU0,-1.35791015625,0.6005859375,0.1201171875,124.36974789915966,-335.7142857142857,-3.5714285714285716
8.585,IMU0,-1.375,0.57080078125,0.087890625,117.92717086834735,-351.47058823529414,6.0924369747899165
8.595,IMU0,-1.3896484375,0.54931640625,0.0732421875,110.50420168067227,-376.6106442577031,16.876750700280112
8.605,IMU0,-1.41552734375,0.525390625,0.072265625,103.78151260504202,-412.7450980392157,27.73109243697479
8.615,IMU0,-1.412109375,0.5126953125,0.06640625,96.77871148459384,-448.03921568627453,39.285714285714285
8.625,IMU0,-1.40576171875,0.498046875,0.05615234375,90.33613445378151,-479.06162464986,49.43977591036415
8.635,IMU0,-1.4130859375,0.49169921875,0.05419921875,85.0140056022409,-500.140056022409,58.4733893557423
8.645,IMU0,-1.37890625,0.49365234375,0.06640625,81.02240896358543,-509.6638655462185,65.75630252100841
8.655,IMU0,-1.322265625,0.49658203125,0.06640625,78.15126050420169,-515.4761904761905,72.05882352941177
8.665,IMU0,-1.31494140625,0.50341796875,0.05224609375,76.47058823529412,-510.0840336134454,77.73109243697479
8.675,IMU0,-1.21044921875,0.5068359375,0.0458984375,76.26050420168067,-496.1484593837535,80.11204481792717
8.685,IMU0,-1.150390625,0.51220703125,0.0341796875,76.89075630252101,-473.73949579831935,82.91316526610645
8.695,IMU0,-1.0712890625,0.51513671875,0.00439453125,78.22128851540617,-451.6806722689076,83.4733893557423
8.705,IMU0,-0.94873046875,0.52685546875,-0.01025390625,80.18207282913166,-429.6918767507003,84.73389355742297
8.715,IMU0,-0.89599609375,0.52978515625,-0.01806640625,82.07282913165267,-411.9047619047619,85.71428571428572
8.725,IMU0,-0.7890625,0.533203125,-0.0517578125,83.33333333333334,-399.5798319327731,86.41456582633053
8.735,IMU0,-0.70654296875,0.525390625,-0.06982421875,84.80392156862746,-392.64705882352945,87.74509803921569
8.745,IMU0,-0.65234375,0.5322265625,-0.095703125,85.71428571428572,-391.6666666666667,87.46498599439776
8.755,IMU0,-0.583984375,0.5224609375,-0.14501953125,86.62464985994399,-394.3977591036415,88.79551820728291
8.765,IMU0,-0.53515625,0.52294921875,-0.19140625,87.53501400560225,-399.08963585434174,88.58543417366947
8.775,IMU0,-0.48779296875,0.51171875,-0.23583984375,88.30532212885154,-403.5014005602241,87.81512605042018
8.785,IMU0,-0.45703125,0.5107421875,-0.28515625,89.00560224089637,-409.80392156862746,87.3249299719888
8.795,IMU0,-0.4443359375,0.49853515625,-0.32666015625,89.42577030812325,-418.5574229691877,85.7843137254902
8.805,IMU0,-0.42822265625,0.48876953125,-0.38232421875,89.42577030812325,-428.36134453781517,84.593837535014
8.815,IMU0,-0.41455078125,0.47802734375,-0.42822265625,89.35574229691878,-440.6162464985995,83.75350140056022
8.825,IMU0,-0.43310546875,0.46923828125,-0.4697265625,87.95518207282913,-456.7226890756303,82.3529411764706
8.835,IMU0,-0.46240234375,0.45458984375,-0.51953125,85.92436974789916,-476.890756302521,81.23249299719889
8.845,IMU0,-0.51708984375,0.43896484375,-0.60791015625,83.8935574229692,-500.140056022409,80.11204481792717
8.855,IMU0,-0.55322265625,0.4169921875,-0.6474609375,78.29131652661064,-551.750700280112,80.0420168067227
8.865,IMU0,-0.59619140625,0.40283203125,-0.66015625,75.49019607843138,-582.2829131652661,81.1624649859944
8.875,IMU0,-0.6455078125,0.39501953125,-0.671875,72.61904761904762,-614.6358543417367,83.40336134453781
8.885,IMU0,-0.70263671875,0.39599609375,-0.67333984375,70.23809523809524,-649.1596638655462,86.76470588235294
8.895,IMU0,-0.755859375,0.40234375,-0.671875,68.4873949579832,-681.4425770308123,91.03641456582633
8.905,IMU0,-0.8125,0.40087890625,-0.6494140625,67.92717086834735,-707.983193277311,95.7983193277311
8.915,IMU0,-0.84814453125,0.40869140625,-0.6171875,67.92717086834735,-728.2212885154062,100.70028011204482
8.925,IMU0,-0.8896484375,0.42041015625,-0.58349609375,69.18767507002802,-741.6666666666667,106.37254901960785
8.935,IMU0,-0.9033203125,0.435546875,-0.5283203125,71.00840336134453,-746.498599439776,110.92436974789916
8.945,IMU0,-0.923828125,0.4443359375,-0.48388671875,73.31932773109244,-744.9579831932773,114.98599439775911
8.955,IMU0,-0.93212890625,0.45703125,-0.4345703125,76.12044817927172,-739.6358543417367,118.27731092436976
8.965,IMU0,-0.927734375,0.46923828125,-0.380859375,79.06162464985995,-735.2941176470589,120.65826330532214
8.975,IMU0,-0.9228515625,0.48291015625,-0.3447265625,82.00280112044818,-732.2128851540616,122.54901960784315
8.985,IMU0,-0.90869140625,0.48876953125,-0.3134765625,85.22408963585434,-728.9915966386556,123.59943977591037
8.995,IMU0,-0.8876953125,0.5,-0.2841796875,88.0952380952381,-725.3501400560225,123.52941176470588
9.005,IMU0,-0.8642578125,0.5048828125,-0.24609375,91.24649859943978,-724.7899159663866,123.24929971988796
9.015,IMU0,-0.84130859375,0.5048828125,-0.24365234375,93.83753501400561,-724.5098039215686,121.63865546218489
9.025,IMU0,-0.80419921875,0.5126953125,-0.24072265625,96.49859943977592,-723.7394957983194,119.81792717086836
9.035,IMU0,-0.806640625,0.509765625,-0.2353515625,99.2296918767507,-722.9691876750701,117.78711484593838
9.045,IMU0,-0.7724609375,0.50927734375,-0.23974609375,101.05042016806723,-721.9187675070028,114.49579831932773
9.055,IMU0,-0.7724609375,0.50390625,-0.23681640625,103.0812324929972,-721.2184873949581,111.83473389355743
9.065,IMU0,-0.77294921875,0.50048828125,-0.24072265625,104.34173669467788,-721.2885154061624,108.4733893557423
9.075,IMU0,-0.76513671875,0.50146484375,-0.263671875,104.97198879551821,-721.4285714285714,105.11204481792717
9.085,IMU0,-0.77197265625,0.49609375,-0.259765625,106.02240896358543,-720.3781512605042,102.03081232492998
9.095,IMU0,-0.7900390625,0.4873046875,-0.29248046875,105.812324929972,-718.2773109243698,98.73949579831933
9.105,IMU0,-0.77978515625,0.48583984375,-0.2900390625,106.02240896358543,-713.935574229692,95.72829131652661
9.115,IMU0,-0.8193359375,0.47509765625,-0.28515625,105.60224089635855,-710.1540616246499,93.62745098039215
9.125,IMU0,-0.82568359375,0.47802734375,-0.298828125,104.2016806722689,-708.3333333333334,91.5266106442577
9.135,IMU0,-0.83837890625,0.4697265625,-0.294921875,103.57142857142857,-708.1932773109244,90.33613445378151
9.145,IMU0,-0.880859375,0.46435546875,-0.28125,102.38095238095238,-706.6526610644258,89.56582633053222
9.155,IMU0,-0.880859375,0.4619140625,-0.27880859375,100.4201680672269,-708.6834733893558,88.93557422969188
9.165,IMU0,-0.91015625,0.4609375,-0.24609375,99.36974789915966,-711.7647058823529,89.42577030812325
9.175,IMU0,-0.9326171875,0.4580078125,-0.23291015625,97.26890756302521,-717.296918767507,90.19607843137256
9.185,IMU0,-0.9384765625,0.453125,-0.20654296875,95.7983193277311,-723.6694677871149,90.61624649859944
9.195,IMU0,-0.9453125,0.4580078125,-0.15673828125,93.76750700280112,-732.4929971988796,91.80672268907563
9.205,IMU0,-0.9775390625,0.45166015625,-0.138671875,91.59663865546219,-741.5266106442577,92.64705882352942
9.215,IMU0,-0.97998046875,0.451171875,-0.04638671875,87.53501400560225,-752.170868347339,93.62745098039215
9.225,IMU0,-0.98095703125,0.45361328125,-0.015625,85.50420168067227,-756.4425770308123,92.99719887955183
9.235,IMU0,-0.970703125,0.451171875,0.0283203125,83.54341736694678,-754.9019607843138,92.71708683473389
9.245,IMU0,-0.96240234375,0.4521484375,0.044921875,81.72268907563026,-752.3109243697479,91.66666666666667
9.255,IMU0,-0.9404296875,0.44921875,0.05517578125,80.88235294117648,-744.3977591036415,89.84593837535014
9.265,IMU0,-0.9228515625,0.4541015625,0.0830078125,80.74229691876751,-731.9327731092437,87.74509803921569
9.275,IMU0,-0.9013671875,0.453125,0.06982421875,80.53221288515407,-715.7563025210085,84.66386554621849
9.285,IMU0,-0.86083984375,0.46044921875,0.06005859375,81.1624649859944,-693.1372549019608,81.30252100840336
9.295,IMU0,-0.84130859375,0.45751953125,0.060546875,82.42296918767508,-667.7170868347339,77.38095238095238
9.305,IMU0,-0.79638671875,0.4560546875,0.05517578125,83.19327731092437,-641.9467787114846,73.17927170868347
9.315,IMU0,-0.775390625,0.45458984375,0.041015625,84.31372549019608,-615.406162464986,69.32773109243698
9.325,IMU0,-0.740234375,0.4541015625,0.03173828125,85.29411764705883,-589.4257703081232,65.05602240896359
9.335,IMU0,-0.7060546875,0.45556640625,0.0146484375,85.7843137254902,-567.577030812325,61.41456582633054
9.345,IMU0,-0.69873046875,0.44580078125,0.00146484375,86.1344537815126,-546.8487394957983,58.543417366946784
9.355,IMU0,-0.67333984375,0.44921875,-0.02197265625,85.85434173669468,-528.5014005602242,55.11204481792717
9.365,IMU0,-0.6552734375,0.44140625,-0.02734375,85.4341736694678,-511.9047619047619,53.01120448179272
9.375,IMU0,-0.6455078125,0.43798828125,-0.0341796875,84.2436974789916,-498.5294117647059,51.260504201680675
9.385,IMU0,-0.62841796875,0.42919921875,-0.04638671875,82.77310924369748,-488.79551820728295,49.57983193277311
9.395,IMU0,-0.63720703125,0.4248046875,-0.072265625,80.812324929972,-481.44257703081234,49.36974789915966
9.405,IMU0,-0.62109375,0.421875,-0.07470703125,78.92156862745098,-475.140056022409,48.94957983193277
9.415,IMU0,-0.62841796875,0.41357421875,-0.08642578125,76.61064425770309,-471.6386554621849,49.57983193277311
9.425,IMU0,-0.62841796875,0.412109375,-0.11181640625,74.2296918767507,-469.0476190476191,50.35014005602241
9.435,IMU0,-0.61767578125,0.40087890625,-0.11767578125,72.47899159663866,-467.64705882352945,51.19047619047619
9.445,IMU0,-0.62451171875,0.40185546875,-0.125,70.16806722689076,-465.1260504201681,53.01120448179272
9.455,IMU0,-0.626953125,0.396484375,-0.1376953125,67.99719887955182,-463.8655462184874,54.411764705882355
9.465,IMU0,-0.6142578125,0.3916015625,-0.14013671875,66.1764705882353,-462.95518207282913,56.372549019607845
9.475,IMU0,-0.62158203125,0.3916015625,-0.15185546875,64.56582633053222,-462.18487394957987,58.4733893557423
9.485,IMU0,-0.615234375,0.3876953125,-0.15185546875,63.235294117647065,-461.2745098039216,60.36414565826331
9.495,IMU0,-0.60791015625,0.388671875,-0.16015625,62.04481792717087,-460.7843137254902,62.3249299719888
9.505,IMU0,-0.59912109375,0.39013671875,-0.1689453125,60.92436974789916,-459.593837535014,64.56582633053222
9.515,IMU0,-0.58837890625,0.38916015625,-0.17333984375,60.36414565826331,-457.63305322128855,66.45658263305323
9.525,IMU0,-0.58349609375,0.38671875,-0.1796875,59.87394957983194,-455.25210084033614,68.13725490196079
9.535,IMU0,-0.57275390625,0.39111328125,-0.18505859375,59.45378151260505,-453.01120448179273,69.74789915966387
9.545,IMU0,-0.54541015625,0.388671875,-0.18408203125,59.523809523809526,-449.78991596638656,71.00840336134453
9.555,IMU0,-0.541015625,0.38623046875,-0.20263671875,59.59383753501401,-448.3893557422969,72.54901960784314
9.565,IMU0,-0.51953125,0.39208984375,-0.2001953125,60.0140056022409,-446.49859943977594,73.59943977591037
9.575,IMU0,-0.490234375,0.39208984375,-0.2294921875,60.7843137254902,-446.7787114845939,75.70028011204482
9.585,IMU0,-0.4716796875,0.3876953125,-0.23046875,61.694677871148464,-447.96918767507003,76.47058823529412
9.595,IMU0,-0.46337890625,0.3876953125,-0.25048828125,62.18487394957983,-449.5798319327731,77.17086834733894
9.605,IMU0,-0.44677734375,0.39013671875,-0.26513671875,63.095238095238095,-451.40056022408965,77.45098039215686
9.615,IMU0,-0.44287109375,0.38720703125,-0.28076171875,63.72549019607843,-453.5714285714286,78.01120448179272
9.625,IMU0,-0.4326171875,0.3837890625,-0.29296875,64.49579831932773,-455.7422969187675,78.0812324929972
9.635,IMU0,-0.42431640625,0.384765625,-0.31396484375,64.9859943977591,-459.5238095238095,78.01120448179272
9.645,IMU0,-0.42578125,0.3828125,-0.33056640625,65.61624649859944,-464.7058823529412,78.15126050420169
9.655,IMU0,-0.43017578125,0.37646484375,-0.35107421875,65.89635854341736,-470.0280112044818,78.01120448179272
9.665,IMU0,-0.4267578125,0.37353515625,-0.36767578125,66.24649859943978,-476.54061624649864,77.94117647058823
9.675,IMU0,-0.43310546875,0.36865234375,-0.3798828125,66.45658263305323,-483.61344537815125,78.15126050420169
9.685,IMU0,-0.4443359375,0.3681640625,-0.39697265625,66.31652661064426,-492.296918767507,78.5014005602241
9.695,IMU0,-0.455078125,0.3701171875,-0.4140625,66.03641456582633,-502.8011204481793,78.92156862745098
9.705,IMU0,-0.46533203125,0.36279296875,-0.4189453125,66.03641456582633,-514.4257703081232,79.34173669467788
9.715,IMU0,-0.4794921875,0.35888671875,-0.43603515625,65.61624649859944,-527.3109243697479,80.0420168067227
9.725,IMU0,-0.50146484375,0.35546875,-0.44921875,65.54621848739497,-540.546218487395,81.1624649859944
9.735,IMU0,-0.515625,0.35693359375,-0.43994140625,65.68627450980392,-554.9019607843137,82.56302521008404
9.745,IMU0,-0.52978515625,0.3525390625,-0.4609375,65.33613445378151,-568.7675070028012,84.03361344537815
9.755,IMU0,-0.55908203125,0.357421875,-0.4521484375,65.89635854341736,-580.5322128851541,85.85434173669468
9.765,IMU0,-0.56884765625,0.3583984375,-0.44140625,65.96638655462185,-591.1764705882354,87.53501400560225
9.775,IMU0,-0.59814453125,0.3603515625,-0.4541015625,66.45658263305323,-600.0,89.42577030812325
9.785,IMU0,-0.60986328125,0.3603515625,-0.4384765625,67.64705882352942,-607.5630252100841,91.24649859943978
9.795,IMU0,-0.62646484375,0.36669921875,-0.43408203125,68.55742296918768,-614.7058823529412,93.41736694677871
9.805,IMU0,-0.64404296875,0.3681640625,-0.4248046875,70.09803921568627,-620.3781512605042,94.95798319327731
9.815,IMU0,-0.65869140625,0.3720703125,-0.416015625,71.70868347338936,-623.4593837535015,96.63865546218487
9.825,IMU0,-0.65625,0.37646484375,-0.408203125,73.31932773109244,-624.0896358543417,97.96918767507003
9.835,IMU0,-0.654296875,0.38037109375,-0.39013671875,75.28011204481793,-623.9495798319329,99.36974789915966
9.845,IMU0,-0.6787109375,0.38232421875,-0.3857421875,77.10084033613445,-624.3697478991597,100.49019607843138
9.855,IMU0,-0.66650390625,0.3916015625,-0.38427734375,78.99159663865547,-622.4089635854342,100.98039215686275
9.865,IMU0,-0.67578125,0.390625,-0.3759765625,81.09243697478992,-619.9579831932773,101.82072829131653
9.875,IMU0,-0.673828125,0.39599609375,-0.3701171875,82.98319327731093,-618.3473389355743,101.89075630252101
9.885,IMU0,-0.6708984375,0.39794921875,-0.361328125,85.15406162464987,-617.436974789916,102.45098039215686
9.895,IMU0,-0.68115234375,0.39990234375,-0.35546875,87.04481792717087,-617.577030812325,102.59103641456583
9.905,IMU0,-0.68115234375,0.4052734375,-0.37060546875,88.79551820728291,-618.4173669467788,102.52100840336135
9.915,IMU0,-0.67431640625,0.40869140625,-0.37109375,91.10644257703082,-618.9775910364145,102.59103641456583
9.925,IMU0,-0.6875,0.40869140625,-0.36962890625,93.0672268907563,-619.4677871148459,102.59103641456583
9.935,IMU0,-0.701171875,0.41455078125,-0.38525390625,94.95798319327731,-620.2380952380953,102.03081232492998
9.945,IMU0,-0.6982421875,0.4150390625,-0.3857421875,98.66946778711485,-626.6106442577031,101.47058823529412
9.955,IMU0,-0.70703125,0.41357421875,-0.39013671875,100.21008403361346,-628.2212885154062,100.98039215686275
9.965,IMU0,-0.72265625,0.41259765625,-0.39990234375,101.75070028011206,-631.232492997199,100.63025210084034
9.975,IMU0,-0.72216796875,0.41748046875,-0.3984375,103.22128851540617,-636.2044817927172,100.49019607843138
9.985,IMU0,-0.7578125,0.41357421875,-0.404296875,104.83193277310924,-641.9467787114846,100.56022408963585
9.995,IMU0,-0.76123046875,0.42236328125,-0.41015625,106.09243697478992,-646.9887955182073,100.35014005602241
10.005,IMU0,-0.7763671875,0.42138671875,-0.40185546875,107.63305322128852,-652.5210084033614,100.56022408963585
10.015,IMU0,-0.80419921875,0.4208984375,-0.4091796875,109.03361344537815,-660.5742296918768,100.77030812324931
10.025,IMU0,-0.8125,0.4248046875,-0.40234375,110.64425770308124,-668.6974789915967,101.12044817927172
10.035,IMU0,-0.85986328125,0.4248046875,-0.39453125,112.11484593837535,-675.3501400560224,101.40056022408965
10.045,IMU0,-0.87646484375,0.43212890625,-0.39697265625,113.23529411764706,-681.09243697479,101.68067226890757
10.055,IMU0,-0.90087890625,0.43017578125,-0.3896484375,114.77591036414566,-684.8039215686275,101.40056022408965
10.065,IMU0,-0.9169921875,0.43603515625,-0.36572265625,116.38655462184875,-688.8655462184875,101.61064425770309
10.075,IMU0,-0.94482421875,0.43798828125,-0.36083984375,117.43697478991596,-694.5378151260504,101.47058823529412
10.085,IMU0,-0.966796875,0.44140625,-0.33740234375,118.9075630252101,-700.140056022409,101.40056022408965
10.095,IMU0,-0.9951171875,0.44482421875,-0.30126953125,119.88795518207283,-705.4621848739496,101.40056022408965
10.105,IMU0,-1.0078125,0.44873046875,-0.287109375,120.44817927170868,-713.2352941176471,100.63025210084034
10.115,IMU0,-1.03662109375,0.44970703125,-0.24462890625,121.5686274509804,-723.529411764706,100.21008403361346
10.125,IMU0,-1.05078125,0.45361328125,-0.20703125,121.77871148459384,-738.8655462184875,99.92997198879553
10.135,IMU0,-1.06591796875,0.44970703125,-0.1669921875,121.98879551820728,-756.3725490196078,99.43977591036415
10.145,IMU0,-1.0595703125,0.44873046875,-0.08837890625,121.49859943977592,-773.1792717086835,98.52941176470588
10.155,IMU0,-1.07666015625,0.44384765625,-0.044921875,119.74789915966387,-797.2689075630252,97.96918767507003
10.165,IMU0,-1.07421875,0.4453125,0.04345703125,118.0672268907563,-828.0112044817928,97.12885154061625
10.175,IMU0,-1.08544921875,0.43359375,0.14990234375,114.84593837535014,-863.5154061624651,96.5686274509804
10.185,IMU0,-1.14208984375,0.4267578125,0.203125,110.22408963585434,-899.6498599439776,94.81792717086836
10.195,IMU0,-1.142578125,0.423828125,0.291015625,106.51260504201682,-930.1120448179272,92.29691876750701
10.205,IMU0,-1.1650390625,0.419921875,0.3427734375,102.03081232492998,-950.3501400560225,88.65546218487395
10.215,IMU0,-1.19677734375,0.41650390625,0.3232421875,98.59943977591037,-950.8403361344539,82.07282913165267
10.225,IMU0,-1.1787109375,0.42041015625,0.3271484375,96.77871148459384,-927.3809523809524,73.73949579831933
10.235,IMU0,-1.173828125,0.42529296875,0.34326171875,95.65826330532214,-889.1456582633053,63.865546218487395
10.245,IMU0,-1.12451171875,0.42578125,0.3388671875,94.74789915966387,-837.6750700280112,53.15126050420168
10.255,IMU0,-1.10107421875,0.4306640625,0.33349609375,94.67787114845939,-779.5518207282913,43.13725490196079
10.265,IMU0,-1.0341796875,0.43994140625,0.341796875,95.86834733893558,-722.4789915966387,32.913165266106446
10.275,IMU0,-1.00439453125,0.4443359375,0.31494140625,97.3389355742297,-668.9775910364147,24.50980392156863
10.285,IMU0,-0.97314453125,0.44970703125,0.30029296875,99.2296918767507,-614.8459383753502,16.456582633053223
10.295,IMU0,-0.94189453125,0.45556640625,0.27392578125,101.19047619047619,-562.8151260504202,8.753501400560225
10.305,IMU0,-0.91650390625,0.46142578125,0.2236328125,104.6218487394958,-464.28571428571433,-3.081232492997199
10.315,IMU0,-0.896484375,0.45947265625,0.19091796875,105.60224089635855,-417.3669467787115,-7.492997198879552
10.325,IMU0,-0.90869140625,0.45849609375,0.16748046875,106.72268907563026,-373.66946778711485,-10.784313725490197
